,t,px,py,pz,qw,qx,qy,qz,vx,vy,vz,omex,omey,omez,accx,accy,accz,taux,tauy,tauz,jerkx,jerky,jerkz,snapx,snapy,snapz,bomex,bomey,bomez,baccx,baccy,baccz,mot1,mot2,mot3,mot4,motdex1,motdex2,motdex3,motdex4,f1,f2,f3,f4
0,0.0,0.0,0.0,5.0,-4.371139000186241e-08,0.999999999999999,0.0,0.0,5.0,0.0,0.0,9.424778,9.424778,9.424778,0,0,0,0,0,0,0,0,0,0,0,0,0,0,0,0,0,0,0,0,0,0,0,0,0,0,0,0
1,0.02,0.09999131,-7.3127726e-06,4.998126029968262,-0.08700386928661577,0.9870045246023716,-0.09406100626345457,0.0969789783628906,4.99802,-0.0015998188,-0.18137965,7.8174434,9.889741,9.388659,0,0,0,0,0,0,0,0,0,0,0,0,0,0,0,0,0,0,0,0,0,0,0,0,0,0,0,0
2,0.04,0.19984233,-0.000111592344,4.992917060852051,-0.149234084571819,0.9524988022527489,-0.18716146832332944,0.1882705619159438,4.98481,-0.009790907,-0.33756876,4.8308926,9.280451,9.217167,0,0,0,0,0,0,0,0,0,0,0,0,0,0,0,0,0,0,0,0,0,0,0,0,0,0,0,0
3,0.06,0.29930517,-0.00041322503,4.984636306762695,-0.17797716027742264,0.9066694594160327,-0.2793082000614497,0.2612691163537261,4.959808,-0.020225909,-0.49063644,1.2193379,8.105368,8.890788,0,0,0,0,0,0,0,0,0,0,0,0,0,0,0,0,0,0,0,0,0,0,0,0,0,0,0,0
4,0.08,0.3981923,-0.00089519005,4.973263263702393,-0.17343993895427665,0.858500031201485,-0.3710814124473105,0.30853665801440067,4.9278855,-0.027129011,-0.6468291,-2.5430145,6.5798364,8.451317,0,0,0,0,0,0,0,0,0,0,0,0,0,0,0,0,0,0,0,0,0,0,0,0,0,0,0,0
5,0.1,0.49645233,-0.0014533082,4.9586992263793945,-0.1388564924821078,0.8127383730306904,-0.46299678138462763,0.32528324876400827,4.9005113,-0.027693495,-0.81234753,-6.2287817,5.070471,7.9401197,0,0,0,0,0,0,0,0,0,0,0,0,0,0,0,0,0,0,0,0,0,0,0,0,0,0,0,0
6,0.12,0.5943573,-0.0019910769,4.94061279296875,-0.07757577156661863,0.767528149654774,-0.5541029065441484,0.312813855371992,4.8935847,-0.026592394,-1.0004587,-9.543666,4.325391,7.3745236,0,0,0,0,0,0,0,0,0,0,0,0,0,0,0,0,0,0,0,0,0,0,0,0,0,0,0,0
7,0.14,0.6922634,-0.0025416105,4.918586730957031,0.008180061616590684,0.7163113295142631,-0.6405442309690796,0.27664824954025624,4.89747,-0.02903892,-1.2033119,-12.161678,4.3941736,6.771182,0,0,0,0,0,0,0,0,0,0,0,0,0,0,0,0,0,0,0,0,0,0,0,0,0,0,0,0
8,0.16,0.7902306,-0.0031411063,4.892516136169434,0.11296489917093332,0.6528829687023107,-0.714696242741683,0.22403580371154957,4.8985057,-0.030046456,-1.4018172,-13.680705,5.0572133,6.147735,0,0,0,0,0,0,0,0,0,0,0,0,0,0,0,0,0,0,0,0,0,0,0,0,0,0,0,0
9,0.18,0.88819784,-0.003689733,4.862610816955566,0.22835775943421477,0.5750959552868351,-0.7680626894849957,0.16491537508668733,4.8988295,-0.023424787,-1.5865585,-13.854296,6.1292663,5.533605,0,0,0,0,0,0,0,0,0,0,0,0,0,0,0,0,0,0,0,0,0,0,0,0,0,0,0,0
10,0.2,0.9862148,-0.00406947,4.829057693481445,0.34454264337261753,0.48674633431571973,-0.7950574342151869,0.1106889751835409,4.9033914,-0.014968654,-1.7696308,-12.62847,7.1915784,4.9607086,0,0,0,0,0,0,0,0,0,0,0,0,0,0,0,0,0,0,0,0,0,0,0,0,0,0,0,0
11,0.22,1.0842618,-0.004384239,4.791683197021484,0.45061564679729194,0.39716384573656005,-0.7963362985024407,0.07109794785108778,4.8981495,-0.019097468,-1.9711734,-10.060867,7.625259,4.4565887,0,0,0,0,0,0,0,0,0,0,0,0,0,0,0,0,0,0,0,0,0,0,0,0,0,0,0,0
12,0.24,1.1819227,-0.0049586557,4.7500739097595215,0.5376129027283273,0.317818553166457,-0.7792328140003972,0.052535280224096814,4.8625927,-0.040588513,-2.1914234,-6.6945143,7.354117,4.016118,0,0,0,0,0,0,0,0,0,0,0,0,0,0,0,0,0,0,0,0,0,0,0,0,0,0,0,0
13,0.26,1.278531,-0.0060897367,4.70399808883667,0.6056870830779335,0.25542185049819444,-0.7515707891928051,0.05517412901647348,4.7925544,-0.07431341,-2.4159403,-3.7944977,7.0775394,3.5958016,0,0,0,0,0,0,0,0,0,0,0,0,0,0,0,0,0,0,0,0,0,0,0,0,0,0,0,0
14,0.28,1.3732499,-0.0080654165,4.653445720672607,0.6636545868933665,0.20693588199234503,-0.71528912892314,0.0714254302319624,4.6710224,-0.1261136,-2.6377194,-2.459304,7.521805,3.2191794,0,0,0,0,0,0,0,0,0,0,0,0,0,0,0,0,0,0,0,0,0,0,0,0,0,0,0,0
15,0.3,1.465158,-0.011196575,4.598624229431152,0.719539584432328,0.1640820621503315,-0.6685671675437911,0.09142103586111741,4.5169034,-0.1875198,-2.8402207,-2.0797436,8.09134,2.8530028,0,0,0,0,0,0,0,0,0,0,0,0,0,0,0,0,0,0,0,0,0,0,0,0,0,0,0,0
16,0.32,1.5538316,-0.015574136,4.540033340454102,0.7726078545090439,0.12392877140649343,-0.6127835660393144,0.11052178048127129,4.3483057,-0.25024554,-3.0135221,-1.8263698,8.3453455,2.479973,0,0,0,0,0,0,0,0,0,0,0,0,0,0,0,0,0,0,0,0,0,0,0,0,0,0,0,0
17,0.34,1.6390158,-0.02119656,4.478316783905029,0.8190471975627394,0.08701290098318962,-0.5525725028684288,0.12749145971724044,4.1678467,-0.3117662,-3.1519308,-1.6588202,7.731505,2.172276,0,0,0,0,0,0,0,0,0,0,0,0,0,0,0,0,0,0,0,0,0,0,0,0,0,0,0,0
18,0.36,1.7204316,-0.028032597,4.414236545562744,0.8545951766114314,0.05308871973157036,-0.4968976674321022,0.14121395133015413,3.9712477,-0.37118557,-3.249145,-1.588702,6.3501277,1.960807,0,0,0,0,0,0,0,0,0,0,0,0,0,0,0,0,0,0,0,0,0,0,0,0,0,0,0,0
19,0.38,1.7977862,-0.036001123,4.348623752593994,0.8785591630384523,0.022774975531901345,-0.4520979555793252,0.15238942250592682,3.7629278,-0.42425755,-3.3060422,-1.4674425,4.639696,1.8130444,0,0,0,0,0,0,0,0,0,0,0,0,0,0,0,0,0,0,0,0,0,0,0,0,0,0,0,0
20,0.4,1.8709118,-0.04493746,4.282210826873779,0.8923228771560135,-0.0027639364141719275,-0.4211571357779579,0.1624158568084381,3.549066,-0.46769956,-3.330992,-1.2180952,2.8716903,1.6968347,0,0,0,0,0,0,0,0,0,0,0,0,0,0,0,0,0,0,0,0,0,0,0,0,0,0,0,0
21,0.42,1.9397349,-0.054643955,4.215521335601807,0.8978765796886645,-0.022223970571827414,-0.40438973142265827,0.17260558478368584,3.3329718,-0.50155455,-3.3355029,-0.8393809,1.2483875,1.5866873,0,0,0,0,0,0,0,0,0,0,0,0,0,0,0,0,0,0,0,0,0,0,0,0,0,0,0,0
22,0.44,2.0042155,-0.06495522,4.148857116699219,0.89736873304895,-0.035460447384529845,-0.3997605255183703,0.1834759816834013,3.1145706,-0.5288098,-3.3298376,-0.5382448,0.0320297,1.4709206,0,0,0,0,0,0,0,0,0,0,0,0,0,0,0,0,0,0,0,0,0,0,0,0,0,0,0,0
23,0.46,2.0642822,-0.07577681,4.082355499267578,0.8932458867957506,-0.045249855427092756,-0.4029606177250464,0.19413133922411754,2.8909907,-0.55306077,-3.319949,-0.58680964,-0.53826696,1.3518971,0,0,0,0,0,0,0,0,0,0,0,0,0,0,0,0,0,0,0,0,0,0,0,0,0,0,0,0
24,0.48,2.1197994,-0.087066546,4.016072750091553,0.888010550771298,-0.0562540727726704,-0.4088294986822521,0.20280823953321442,2.6592689,-0.5755326,-3.3082092,-1.0059766,-0.49608797,1.237478,0,0,0,0,0,0,0,0,0,0,0,0,0,0,0,0,0,0,0,0,0,0,0,0,0,0,0,0
25,0.5,2.1705892,-0.098772004,3.950035572052002,0.8834513278123712,-0.07188496136945706,-0.4135219605256469,0.20819676241117435,2.4182274,-0.5940397,-3.2953417,-1.576483,-0.09643827,1.1343112,0,0,0,0,0,0,0,0,0,0,0,0,0,0,0,0,0,0,0,0,0,0,0,0,0,0,0,0
26,0.52,2.2164683,-0.11077233,3.8842661380767822,0.8802705878452576,-0.09274399206639065,-0.4151725415951908,0.21012854355261568,2.1683984,-0.6042424,-3.281457,-2.0269947,0.38035482,1.0462654,0,0,0,0,0,0,0,0,0,0,0,0,0,0,0,0,0,0,0,0,0,0,0,0,0,0,0,0
27,0.54,2.2572794,-0.12285652,3.818782091140747,0.8782982121123751,-0.11683895821906234,-0.4135495282229744,0.20956549369837807,1.9118259,-0.6018351,-3.2669134,-2.1732814,0.73768884,0.9729555,0,0,0,0,0,0,0,0,0,0,0,0,0,0,0,0,0,0,0,0,0,0,0,0,0,0,0,0
28,0.56,2.292915,-0.13474466,3.7535898685455322,0.8770613447428617,-0.14089867369862746,-0.40939982352637627,0.2080931181091359,1.6513042,-0.58447105,-3.2523482,-1.9770354,0.8994354,0.91045886,0,0,0,0,0,0,0,0,0,0,0,0,0,0,0,0,0,0,0,0,0,0,0,0,0,0,0,0
29,0.58,2.3233216,-0.14613666,3.6886863708496094,0.8762485362933586,-0.16180554636575661,-0.4037808060599163,0.20728851503792975,1.3892077,-0.55248535,-3.2380416,-1.5088599,0.8876211,0.85477585,0,0,0,0,0,0,0,0,0,0,0,0,0,0,0,0,0,0,0,0,0,0,0,0,0,0,0,0
30,0.6,2.3484821,-0.15676264,3.624070167541504,0.8758459249903013,-0.17742738884416076,-0.3975264156987431,0.20829350971054364,1.12693,-0.50842327,-3.2235081,-0.8848687,0.78043836,0.80414575,0,0,0,0,0,0,0,0,0,0,0,0,0,0,0,0,0,0,0,0,0,0,0,0,0,0,0,0
31,0.62,2.3684008,-0.16641766,3.5597567558288574,0.8760581040021616,-0.1868825221843638,-0.39091317796639075,0.2116223253968394,0.86508733,-0.45605066,-3.2075016,-0.225515,0.6755269,0.75885516,0,0,0,0,0,0,0,0,0,0,0,0,0,0,0,0,0,0,0,0,0,0,0,0,0,0,0,0
32,0.64,2.383091,-0.17497577,3.4957921504974365,0.8771740191221498,-0.19044394701497247,-0.3835835668815642,0.21716466204442572,0.6041472,-0.3993639,-3.1882904,0.37185386,0.65592796,0.71974814,0,0,0,0,0,0,0,0,0,0,0,0,0,0,0,0,0,0,0,0,0,0,0,0,0,0,0,0
33,0.66,2.3925784,-0.18238668,3.4322593212127686,0.8794563186857848,-0.1891920836253485,-0.37473238252391383,0.22436260941854272,0.34505823,-0.3418172,-3.1640048,0.850669,0.7637212,0.68684983,0,0,0,0,0,0,0,0,0,0,0,0,0,0,0,0,0,0,0,0,0,0,0,0,0,0,0,0
34,0.68,2.396916,-0.1886592,3.3692781925201416,0.8830631117088195,-0.18456150382744618,-0.3634450005987558,0.23247435037839975,0.089444056,-0.28582332,-3.132809,1.1938944,0.99439394,0.6591035,0,0,0,0,0,0,0,0,0,0,0,0,0,0,0,0,0,0,0,0,0,0,0,0,0,0,0,0
35,0.7000000000000001,2.396193,-0.19383821,3.3070054054260254,0.8879931082529482,-0.17797478260255356,-0.3490145633438141,0.24079462416501002,-0.16063133,-0.23256196,-3.0928986,1.4086872,1.3088585,0.6350123,0,0,0,0,0,0,0,0,0,0,0,0,0,0,0,0,0,0,0,0,0,0,0,0,0,0,0,0
36,0.72,2.3905427,-0.19798057,3.2456321716308594,0.8940549048399236,-0.17063669844102125,-0.3311491694240525,0.24877534416935954,-0.40296572,-0.18208951,-3.0425565,1.5126222,1.6500043,0.61337626,0,0,0,0,0,0,0,0,0,0,0,0,0,0,0,0,0,0,0,0,0,0,0,0,0,0,0,0
37,0.74,2.3801413,-0.20113552,3.185382843017578,0.9008778585768168,-0.16344059653677556,-0.31005564694472476,0.2560698169004699,-0.635386,-0.13365324,-2.980384,1.5282269,1.9581213,0.5936791,0,0,0,0,0,0,0,0,0,0,0,0,0,0,0,0,0,0,0,0,0,0,0,0,0,0,0,0
38,0.76,2.365208,-0.20333247,3.1265017986297607,0.9079771955115251,-0.1569317088312373,-0.2864015978027202,0.26253376158197694,-0.85584426,-0.0860821,-2.905613,1.4816658,2.18437,0.5759615,0,0,0,0,0,0,0,0,0,0,0,0,0,0,0,0,0,0,0,0,0,0,0,0,0,0,0,0
39,0.78,2.3459997,-0.20457636,3.069242238998413,0.9148569428598552,-0.1513125014642412,-0.26117452656616574,0.2681961365767464,-1.0625683,-0.038157042,-2.8183064,1.4006057,2.3001385,0.5602949,0,0,0,0,0,0,0,0,0,0,0,0,0,0,0,0,0,0,0,0,0,0,0,0,0,0,0,0
40,0.8,2.322806,-0.20484972,3.013848066329956,0.9211114424741562,-0.14649189279669922,-0.23548273850966317,0.2732063611119061,-1.2542754,0.011100636,-2.719305,1.3111743,2.299902,0.5463154,0,0,0,0,0,0,0,0,0,0,0,0,0,0,0,0,0,0,0,0,0,0,0,0,0,0,0,0
41,0.8200000000000001,2.295934,-0.20411949,2.9605395793914795,0.9264896632544048,-0.14216331302684657,-0.2103557723188579,0.27777139047084626,-1.430344,0.062252223,-2.6099524,1.2353742,2.1980236,0.5331693,0,0,0,0,0,0,0,0,0,0,0,0,0,0,0,0,0,0,0,0,0,0,0,0,0,0,0,0
42,0.84,2.2656972,-0.20234625,2.9095096588134766,0.9309078083263127,-0.1378953386650683,-0.18658988918002314,0.2820988146507071,-1.5908313,0.115376174,-2.4917395,1.1888797,2.0222874,0.5198218,0,0,0,0,0,0,0,0,0,0,0,0,0,0,0,0,0,0,0,0,0,0,0,0,0,0,0,0
43,0.86,2.2324014,-0.19949365,2.8609206676483154,0.9344188038204264,-0.13322615064855786,-0.1646626745169299,0.28635379423206997,-1.7363281,0.17009357,-2.366018,1.1791465,1.8065631,0.5054423,0,0,0,0,0,0,0,0,0,0,0,0,0,0,0,0,0,0,0,0,0,0,0,0,0,0,0,0
44,0.88,2.1963384,-0.19553676,2.8149120807647705,0.9371585225785153,-0.1277533635678295,-0.14472219657335222,0.2906345944214902,-1.8677136,0.22565916,-2.2338543,1.2047783,1.5836506,0.48961765,0,0,0,0,0,0,0,0,0,0,0,0,0,0,0,0,0,0,0,0,0,0,0,0,0,0,0,0
45,0.9,2.157781,-0.19046816,2.7716047763824463,0.9392890328087777,-0.12120332198069898,-0.12664443507548065,0.29496958258506295,-1.9859084,0.28109223,-2.096011,1.2570518,1.379127,0.47231093,0,0,0,0,0,0,0,0,0,0,0,0,0,0,0,0,0,0,0,0,0,0,0,0,0,0,0,0
46,0.92,2.116985,-0.18430118,2.7311065196990967,0.940955508466895,-0.11346206170790982,-0.11013652374712228,0.2993309836547112,-2.0916977,0.33531928,-1.9530072,1.3232672,1.2075601,0.45366213,0,0,0,0,0,0,0,0,0,0,0,0,0,0,0,0,0,0,0,0,0,0,0,0,0,0,0,0
47,0.9400000000000001,2.0741923,-0.17707051,2.693516731262207,0.9422638827752686,-0.10456448318017289,-0.09485304314449106,0.3036576102796822,-2.1856465,0.38729915,-1.8052114,1.3905928,1.0721855,0.4338044,0,0,0,0,0,0,0,0,0,0,0,0,0,0,0,0,0,0,0,0,0,0,0,0,0,0,0,0
48,0.96,2.0296361,-0.16883054,2.658928394317627,0.9432780166139432,-0.09465242518467827,-0.08049074624028195,0.3078778029498177,-2.268103,0.43610787,-1.6529382,1.4490466,0.9677267,0.41279536,0,0,0,0,0,0,0,0,0,0,0,0,0,0,0,0,0,0,0,0,0,0,0,0,0,0,0,0
49,0.98,1.9835443,-0.15965268,2.627427101135254,0.9440295233999232,-0.08392137943097186,-0.06684130167464931,0.31192579472392973,-2.3392563,0.4809776,-1.4965235,1.4928652,0.88466537,0.39064333,0,0,0,0,0,0,0,0,0,0,0,0,0,0,0,0,0,0,0,0,0,0,0,0,0,0,0,0
50,1.0,1.9361414,-0.14962204,2.599092721939087,0.9445321198652619,-0.07257348688650553,-0.05380140439176738,0.315749223956991,-2.3992198,0.5212971,-1.3363644,1.5202632,0.8131065,0.3673564,0,0,0,0,0,0,0,0,0,0,0,0,0,0,0,0,0,0,0,0,0,0,0,0,0,0,0,0
51,1.02,1.88765,-0.13883458,2.5739943981170654,0.9447938730919783,-0.060787441400113856,-0.04135403589837139,0.31931061374593056,-2.4481077,0.5565887,-1.1729237,1.532188,0.74521774,0.34296963,0,0,0,0,0,0,0,0,0,0,0,0,0,0,0,0,0,0,0,0,0,0,0,0,0,0,0,0
52,1.04,1.8382903,-0.1273948,2.5521938800811768,0.9448252069515937,-0.04870690327494111,-0.029537275321579036,0.32258412119758906,-2.4860897,0.5864762,-1.0067105,1.530838,0.67617273,0.3175459,0,0,0,0,0,0,0,0,0,0,0,0,0,0,0,0,0,0,0,0,0,0,0,0,0,0,0,0
53,1.06,1.7882781,-0.11541388,2.533740997314453,0.9446422071085532,-0.03644340878020843,-0.01841349907562975,0.3255517187135584,-2.5134218,0.6106559,-0.83825344,1.5184854,0.6040345,0.2911642,0,0,0,0,0,0,0,0,0,0,0,0,0,0,0,0,0,0,0,0,0,0,0,0,0,0,0,0
54,1.08,1.7378229,-0.1030086,2.5186753273010254,0.9442668316257691,-0.024086933373240315,-0.008045562937767124,0.3281999988560613,-2.53045,0.62887603,-0.6680763,1.4968215,0.5290947,0.2639049,0,0,0,0,0,0,0,0,0,0,0,0,0,0,0,0,0,0,0,0,0,0,0,0,0,0,0,0
55,1.1,1.6871264,-0.090300284,2.507025957107544,0.943725600723907,-0.011718338958047672,0.0015184437897243007,0.33051832838561673,-2.5376058,0.64092803,-0.4966827,1.4667596,0.45306763,0.23583551,0,0,0,0,0,0,0,0,0,0,0,0,0,0,0,0,0,0,0,0,0,0,0,0,0,0,0,0
56,1.12,1.6363815,-0.07741403,2.4988129138946533,0.9430480772394467,0.0005801813130318087,0.010252812778837567,0.3324979206472556,-2.5353894,0.6466485,-0.3245495,1.4285233,0.3783732,0.20699693,0,0,0,0,0,0,0,0,0,0,0,0,0,0,0,0,0,0,0,0,0,0,0,0,0,0,0,0
57,1.1400000000000001,1.5857701,-0.064477645,2.494046449661255,0.9422655855805764,0.012718073122613749,0.018156224314761202,0.33413196250160426,-2.5243552,0.64592814,-0.15212612,1.3818531,0.30759767,0.17739016,0,0,0,0,0,0,0,0,0,0,0,0,0,0,0,0,0,0,0,0,0,0,0,0,0,0,0,0
58,1.16,1.5354627,-0.051620483,2.492727518081665,0.9414104310280648,0.02459291745737877,0.025250258811491372,0.33541617908568594,-2.5050952,0.63872516,0.020163463,1.3262138,0.24315226,0.1469635,0,0,0,0,0,0,0,0,0,0,0,0,0,0,0,0,0,0,0,0,0,0,0,0,0,0,0,0
59,1.18,1.4856175,-0.03897194,2.49484920501709,0.9405158681090485,0.03608948945780958,0.03157606666332338,0.3363486325226117,-2.4782295,0.62508106,0.19191842,1.2609545,0.1870955,0.115602836,0,0,0,0,0,0,0,0,0,0,0,0,0,0,0,0,0,0,0,0,0,0,0,0,0,0,0,0
60,1.2,1.4363803,-0.026659604,2.5003976821899414,0.9396161234146247,0.047080525248530014,0.03719053107042985,0.33693000632222503,-2.4443932,0.6051346,0.36276123,1.185409,0.1410795,0.08312749,0,0,0,0,0,0,0,0,0,0,0,0,0,0,0,0,0,0,0,0,0,0,0,0,0,0,0,0
61,1.22,1.3878843,-0.01480724,2.5093510150909424,0.9387466980288819,0.05742818083233127,0.0421624572255921,0.33716311807026,-2.4042313,0.5791343,0.5323416,1.0989544,0.10636966,0.0492938,0,0,0,0,0,0,0,0,0,0,0,0,0,0,0,0,0,0,0,0,0,0,0,0,0,0,0,0
62,1.24,1.3402493,-0.0035324492,2.5216808319091797,0.9379443922862729,0.06698595705268881,0.04656945356591333,0.3370526435603815,-2.35839,0.5474477,0.70034647,1.0010525,0.08388079,0.013809515,0,0,0,0,0,0,0,0,0,0,0,0,0,0,0,0,0,0,0,0,0,0,0,0,0,0,0,0
63,1.26,1.2935827,0.007055756,2.5373525619506836,0.9372472773268045,0.07560091995298308,0.050495121115392644,0.3366040474939311,-2.3075097,0.51056653,0.8665144,0.8913384,0.07418973,-0.023640662,0,0,0,0,0,0,0,0,0,0,0,0,0,0,0,0,0,0,0,0,0,0,0,0,0,0,0,0
64,1.28,1.2479787,0.01685945,2.5563275814056396,0.9366938421102916,0.08311733241474151,0.05402662119849422,0.3358232859805761,-2.2522173,0.4691074,1.0306536,0.76978314,0.07746719,-0.06335974,0,0,0,0,0,0,0,0,0,0,0,0,0,0,0,0,0,0,0,0,0,0,0,0,0,0,0,0
65,1.3,1.2035196,0.025794238,2.578563690185547,0.9363218750344879,0.08938223454606753,0.05725159535129727,0.33471542735461657,-2.1931176,0.42380613,1.1926605,0.6369369,0.093315445,-0.105600275,0,0,0,0,0,0,0,0,0,0,0,0,0,0,0,0,0,0,0,0,0,0,0,0,0,0,0,0
66,1.32,1.1602757,0.033791557,2.6040189266204834,0.9361663881371409,0.09425449142238401,0.06025422699096872,0.33328368201681996,-2.1307838,0.3755074,1.3525305,0.49421102,0.120539695,-0.15053226,0,0,0,0,0,0,0,0,0,0,0,0,0,0,0,0,0,0,0,0,0,0,0,0,0,0,0,0
67,1.34,1.1183063,0.040800687,2.632650852203369,0.9362572880311704,0.09761649525884561,0.06310982417730604,0.3315274657614467,-2.065753,0.32514623,1.5103588,0.34408328,0.1569557,-0.19822495,0,0,0,0,0,0,0,0,0,0,0,0,0,0,0,0,0,0,0,0,0,0,0,0,0,0,0,0
68,1.36,1.0776603,0.04679029,2.6644201278686523,0.9366168118602998,0.09938740154173523,0.06587863766755056,0.3294405822822947,-1.9985224,0.2737228,1.6663259,0.19006069,0.19937693,-0.24864781,0,0,0,0,0,0,0,0,0,0,0,0,0,0,0,0,0,0,0,0,0,0,0,0,0,0,0,0
69,1.3800000000000001,1.0383772,0.051749434,2.6992924213409424,0.937257648681016,0.09953400111342822,0.06860002251546149,0.32700935693365646,-1.9295502,0.222271,1.820672,0.036311448,0.24389955,-0.30168885,0,0,0,0,0,0,0,0,0,0,0,0,0,0,0,0,0,0,0,0,0,0,0,0,0,0,0,0
70,1.4000000000000001,1.0004872,0.055687904,2.7372374534606934,0.9381821738558602,0.09807493754242079,0.07128890181636019,0.3242119796721892,-1.8592615,0.17182314,1.97366,-0.11303994,0.28650668,-0.3571861,0,0,0,0,0,0,0,0,0,0,0,0,0,0,0,0,0,0,0,0,0,0,0,0,0,0,0,0
71,1.42,0.96401286,0.05863584,2.778230905532837,0.9393832284437071,0.0950753321124072,0.07393633674575958,0.3210190795747364,-1.7880565,0.12337608,2.1255372,-0.25480074,0.32385808,-0.4149644,0,0,0,0,0,0,0,0,0,0,0,0,0,0,0,0,0,0,0,0,0,0,0,0,0,0,0,0
72,1.44,0.9289685,0.060642708,2.8222522735595703,0.9408461737545736,0.09063055918832683,0.07651432960269935,0.317395867077754,-1.7163192,0.07786472,2.2764995,-0.38750452,0.3540016,-0.47486973,0,0,0,0,0,0,0,0,0,0,0,0,0,0,0,0,0,0,0,0,0,0,0,0,0,0,0,0
73,1.46,0.8953611,0.061775967,2.8692851066589355,0.9425511726865747,0.08484282258819563,0.07898447161926445,0.31330565836808044,-1.6444278,0.03614905,2.4266624,-0.51182765,0.3767434,-0.53679585,0,0,0,0,0,0,0,0,0,0,0,0,0,0,0,0,0,0,0,0,0,0,0,0,0,0,0,0
74,1.48,0.8631899,0.06211951,2.919313669204712,0.9444751124254883,0.07779558154115235,0.08130728159309412,0.3087130309226946,-1.5727617,-0.0009822658,2.5760381,-0.63047564,0.3934989,-0.6007014,0,0,0,0,0,0,0,0,0,0,0,0,0,0,0,0,0,0,0,0,0,0,0,0,0,0,0,0
75,1.5,0.83244646,0.061772455,2.972320556640625,0.9465921709570049,0.06953311476283758,0.08344953674690778,0.30358620299843847,-1.5017077,-0.032792933,2.724514,-0.74755496,0.40663475,-0.66661733,0,0,0,0,0,0,0,0,0,0,0,0,0,0,0,0,0,0,0,0,0,0,0,0,0,0,0,0
76,1.52,0.8031146,0.06084835,3.0282862186431885,0.9488732862672675,0.06005028143031822,0.08538621063362115,0.29789703815601576,-1.4316674,-0.058571182,2.8718295,-0.86760545,0.4184646,-0.7346421,0,0,0,0,0,0,0,0,0,0,0,0,0,0,0,0,0,0,0,0,0,0,0,0,0,0,0,0
77,1.54,0.77516997,0.059474953,3.0871827602386475,0.9512843100346596,0.049295566091889655,0.08709585839034151,0.2916203355337404,-1.3630635,-0.077603534,3.0175433,-0.9945458,0.43012428,-0.80491334,0,0,0,0,0,0,0,0,0,0,0,0,0,0,0,0,0,0,0,0,0,0,0,0,0,0,0,0
78,1.56,0.7485793,0.05779444,3.1489717960357666,0.9537844619976639,0.03718667754399707,0.08854814921557416,0.28473070845197235,-1.2963477,-0.08916239,3.1609876,-1.1307259,0.44056165,-0.8775346,0,0,0,0,0,0,0,0,0,0,0,0,0,0,0,0,0,0,0,0,0,0,0,0,0,0,0,0
79,1.58,0.7233,0.05596358,3.213599443435669,0.9563248161184273,0.023637122441432193,0.08968554297925116,0.2772014356010113,-1.2320188,-0.09251963,3.3012006,-1.2761045,0.44580537,-0.95241976,0,0,0,0,0,0,0,0,0,0,0,0,0,0,0,0,0,0,0,0,0,0,0,0,0,0,0,0
80,1.6,0.6992786,0.054153316,3.2809879779815674,0.9588482777807507,0.008591941333468425,0.09040168565587374,0.26900500733552735,-1.1706445,-0.08699851,3.4368262,-1.427351,0.43875793,-1.028998,0,0,0,0,0,0,0,0,0,0,0,0,0,0,0,0,0,0,0,0,0,0,0,0,0,0,0,0
81,1.62,0.67644966,0.05254679,3.351027250289917,0.9612910474793345,-0.007926623519686406,0.09052464566126595,0.2601191634685215,-1.1128954,-0.07207739,3.5659485,-1.5763254,0.41004688,-1.1057032,0,0,0,0,0,0,0,0,0,0,0,0,0,0,0,0,0,0,0,0,0,0,0,0,0,0,0,0
82,1.6400000000000001,0.65473264,0.05133459,3.4235613346099854,0.9635860207297657,-0.02575660112584816,0.08982367590279212,0.250539987626585,-1.0595827,-0.04756756,3.6858134,-1.7068713,0.35122597,-1.179178,0,0,0,0,0,0,0,0,0,0,0,0,0,0,0,0,0,0,0,0,0,0,0,0,0,0,0,0
83,1.6600000000000001,0.6340294,0.05070545,3.4983668327331543,0.965669669011685,-0.04450191016205168,0.08807645376005531,0.24030024684932016,-1.0116681,-0.013896291,3.792399,-1.7885219,0.26231652,-1.243233,0,0,0,0,0,0,0,0,0,0,0,0,0,0,0,0,0,0,0,0,0,0,0,0,0,0,0,0
84,1.68,0.6142219,0.05083012,3.5751237869262695,0.9674971310254712,-0.06338687544659019,0.08524804459580895,0.22948676731173862,-0.970165,0.027490966,3.879944,-1.7682298,0.16357367,-1.2879823,0,0,0,0,0,0,0,0,0,0,0,0,0,0,0,0,0,0,0,0,0,0,0,0,0,0,0,0
85,1.7,0.5951734,0.05183673,3.653378486633301,0.9690760448823531,-0.0810872430674649,0.08176598343599462,0.21824482170177134,-0.9358264,0.073729955,3.940946,-1.5733582,0.09968532,-1.3003466,0,0,0,0,0,0,0,0,0,0,0,0,0,0,0,0,0,0,0,0,0,0,0,0,0,0,0,0
86,1.72,0.576739,0.05378131,3.7325189113616943,0.9705128430857424,-0.09572563716521867,0.07864270575711318,0.20677705053061998,-0.9086924,0.12051579,3.9673,-1.153457,0.11043143,-1.2673333,0,0,0,0,0,0,0,0,0,0,0,0,0,0,0,0,0,0,0,0,0,0,0,0,0,0,0,0
87,1.74,0.5587811,0.056624472,3.811779499053955,0.9720068096992384,-0.10534235807079981,0.07703207287200817,0.19537607131743032,-0.88800514,0.16278431,3.952019,-0.5503495,0.17565559,-1.1807345,0,0,0,0,0,0,0,0,0,0,0,0,0,0,0,0,0,0,0,0,0,0,0,0,0,0,0,0
88,1.76,0.5411773,0.060220834,3.8902459144592285,0.9737281487304519,-0.10859359621251304,0.07763210497573958,0.1844835480703805,-0.8732006,0.19509622,3.886856,0.1457339,0.26852572,-1.0320833,0,0,0,0,0,0,0,0,0,0,0,0,0,0,0,0,0,0,0,0,0,0,0,0,0,0,0,0
89,1.78,0.52382344,0.06435663,3.966963529586792,0.975661188245835,-0.10606598685118954,0.07929836689126403,0.1747770614021959,-0.8626637,0.21717845,3.779925,0.5438546,0.10064191,-0.85328174,0,0,0,0,0,0,0,0,0,0,0,0,0,0,0,0,0,0,0,0,0,0,0,0,0,0,0,0
90,1.8,0.50665635,0.06886815,4.041299343109131,0.9776413200854751,-0.10039356141741806,0.0796418124707501,0.16672061598323912,-0.8543948,0.23307401,3.6504252,0.7200155,-0.07111944,-0.69418836,0,0,0,0,0,0,0,0,0,0,0,0,0,0,0,0,0,0,0,0,0,0,0,0,0,0,0,0
91,1.82,0.4896299,0.07363908,4.112828254699707,0.9794384116324789,-0.09367827757350304,0.07922838251209517,0.16014881059260397,-0.8486898,0.24310978,3.4989498,0.683382,-0.10997997,-0.5543515,0,0,0,0,0,0,0,0,0,0,0,0,0,0,0,0,0,0,0,0,0,0,0,0,0,0,0,0
92,1.84,0.4726906,0.0785578,4.181111812591553,0.9808354620253267,-0.08804126543106702,0.07877792290320787,0.15493408559099206,-0.8456324,0.24806505,3.326303,0.5022033,-0.07814303,-0.43449882,0,0,0,0,0,0,0,0,0,0,0,0,0,0,0,0,0,0,0,0,0,0,0,0,0,0,0,0
93,1.86,0.45578796,0.08353441,4.245751857757568,0.9818893904484263,-0.08380206439217347,0.07817067030451808,0.15086346553281316,-0.8449752,0.24907221,3.1351137,0.42340818,-0.13991563,-0.3458667,0,0,0,0,0,0,0,0,0,0,0,0,0,0,0,0,0,0,0,0,0,0,0,0,0,0,0,0
94,1.8800000000000001,0.438881,0.088505015,4.306435585021973,0.9829034007086426,-0.07910608605338171,0.07662940742845262,0.14755021498413567,-0.8458682,0.24779266,2.932107,0.5457845,-0.25828952,-0.2925816,0,0,0,0,0,0,0,0,0,0,0,0,0,0,0,0,0,0,0,0,0,0,0,0,0,0,0,0
95,1.9000000000000001,0.42195314,0.09344642,4.363035202026367,0.9839643832708648,-0.07271120524647864,0.07516015953365313,0.14449264169800108,-0.84687084,0.24642661,2.7281873,0.7344594,-0.14903447,-0.26909506,0,0,0,0,0,0,0,0,0,0,0,0,0,0,0,0,0,0,0,0,0,0,0,0,0,0,0,0
96,1.92,0.40500867,0.098366044,4.41558313369751,0.9849509797072135,-0.06482311075998899,0.07545106556472675,0.14133884317605652,-0.84753704,0.24560146,2.526892,0.87083423,0.0024235863,-0.25920278,0,0,0,0,0,0,0,0,0,0,0,0,0,0,0,0,0,0,0,0,0,0,0,0,0,0,0,0
97,1.94,0.38805348,0.10327315,4.464126110076904,0.9858025932369674,-0.05651147038701316,0.07701355040741212,0.1380891521286625,-0.8479727,0.24513498,2.3274715,0.84503204,0.0945264,-0.26145807,0,0,0,0,0,0,0,0,0,0,0,0,0,0,0,0,0,0,0,0,0,0,0,0,0,0,0,0
98,1.96,0.37108925,0.10817137,4.508679389953613,0.9864727281675406,-0.04910059408085817,0.07933496533028014,0.1347837212672206,-0.8484675,0.2446874,2.1277823,0.72967994,0.18480176,-0.26899996,0,0,0,0,0,0,0,0,0,0,0,0,0,0,0,0,0,0,0,0,0,0,0,0,0,0,0,0
99,1.98,0.35411787,0.11306348,4.549259185791016,0.9869905091511637,-0.04289948701805663,0.0820130643301808,0.13146568426128485,-0.84856826,0.24460362,1.9308895,0.6302366,0.17943728,-0.2744433,0,0,0,0,0,0,0,0,0,0,0,0,0,0,0,0,0,0,0,0,0,0,0,0,0,0,0,0
100,2.0,0.3371507,0.11795839,4.585941791534424,0.9874678956991091,-0.03753195450925469,0.08406321529559557,0.12818690724272666,-0.84804976,0.24494252,1.7380023,0.53501177,0.098380126,-0.27970812,0,0,0,0,0,0,0,0,0,0,0,0,0,0,0,0,0,0,0,0,0,0,0,0,0,0,0,0
101,2.02,0.32020408,0.12286564,4.618829727172852,0.9879573303172485,-0.03302803469861496,0.08502602920471339,0.12498014543935138,-0.8463259,0.24593104,1.552505,0.44628397,-0.009861975,-0.2821254,0,0,0,0,0,0,0,0,0,0,0,0,0,0,0,0,0,0,0,0,0,0,0,0,0,0,0,0
102,2.04,0.3033145,0.1278036,4.648144245147705,0.9884897076105138,-0.028825645367004833,0.08490629985609353,0.1218527815111479,-0.842165,0.24806353,1.3818165,0.45999032,-0.10002748,-0.27686644,0,0,0,0,0,0,0,0,0,0,0,0,0,0,0,0,0,0,0,0,0,0,0,0,0,0,0,0
103,2.06,0.28653955,0.1327966,4.674236297607422,0.9890534833443991,-0.023754808405640634,0.08427610259908663,0.11877059691956417,-0.8347837,0.25140548,1.2307607,0.60201496,-0.12741378,-0.26221716,0,0,0,0,0,0,0,0,0,0,0,0,0,0,0,0,0,0,0,0,0,0,0,0,0,0,0,0
104,2.08,0.2699458,0.13786462,4.697511672973633,0.9895848180203406,-0.016929131078051083,0.08392493096931475,0.11572337026887479,-0.8240702,0.25544077,1.0999217,0.7933513,-0.089369334,-0.23862058,0,0,0,0,0,0,0,0,0,0,0,0,0,0,0,0,0,0,0,0,0,0,0,0,0,0,0,0
105,2.1,0.25359687,0.14301267,4.718349456787109,0.9899998402438729,-0.008569885858613195,0.0842842262507109,0.11279646527615825,-0.8103739,0.25924882,0.98637307,0.89656585,-0.030575097,-0.20799316,0,0,0,0,0,0,0,0,0,0,0,0,0,0,0,0,0,0,0,0,0,0,0,0,0,0,0,0
106,2.12,0.23754825,0.14822736,4.737058162689209,0.990264508798547,-4.571325993950846e-05,0.08508844696123548,0.11016422612624967,-0.7941047,0.26200178,0.88645005,0.8231265,-0.012836474,-0.17386308,0,0,0,0,0,0,0,0,0,0,0,0,0,0,0,0,0,0,0,0,0,0,0,0,0,0,0,0
107,2.14,0.2218486,0.1534831,4.753887176513672,0.9904416803337924,0.00703421059267793,0.08552418453075941,0.10798801599835191,-0.7755055,0.26333174,0.79820484,0.60932463,-0.07368018,-0.14087285,0,0,0,0,0,0,0,0,0,0,0,0,0,0,0,0,0,0,0,0,0,0,0,0,0,0,0,0
108,2.16,0.20654309,0.15875141,4.769067764282227,0.9906430996615886,0.011974746727552972,0.08475354016166681,0.10630000923685569,-0.75471866,0.26329115,0.7217702,0.3909865,-0.19934785,-0.112979956,0,0,0,0,0,0,0,0,0,0,0,0,0,0,0,0,0,0,0,0,0,0,0,0,0,0,0,0
109,2.18,0.19167323,0.16400671,4.7828450202941895,0.9909271057484806,0.015475833454875855,0.08248907691342944,0.1049739103862805,-0.7319928,0.2620537,0.65807265,0.30485678,-0.32689488,-0.091952346,0,0,0,0,0,0,0,0,0,0,0,0,0,0,0,0,0,0,0,0,0,0,0,0,0,0,0,0
110,2.2,0.17727329,0.16922534,4.79547643661499,0.9912507573698583,0.01910659365169394,0.0792529104331976,0.10380679303676853,-0.7078206,0.25958538,0.6069856,0.39172798,-0.3844033,-0.07716964,0,0,0,0,0,0,0,0,0,0,0,0,0,0,0,0,0,0,0,0,0,0,0,0,0,0,0,0
111,2.22,0.16336569,0.17437932,4.807193279266357,0.9915103584460936,0.02414897423731751,0.07607348288420449,0.10264921499578622,-0.68285584,0.25550082,0.56611073,0.56423134,-0.3433894,-0.066371374,0,0,0,0,0,0,0,0,0,0,0,0,0,0,0,0,0,0,0,0,0,0,0,0,0,0,0,0
112,2.24,0.14996034,0.179431,4.818160057067871,0.9916220705466262,0.030611744874474985,0.07381403820410687,0.10148930014816622,-0.65766823,0.24928445,0.53117365,0.6668617,-0.23813175,-0.057120476,0,0,0,0,0,0,0,0,0,0,0,0,0,0,0,0,0,0,0,0,0,0,0,0,0,0,0,0
113,2.2600000000000002,0.13705829,0.18433495,4.828451633453369,0.9915934911354156,0.03716185307035859,0.07262949252419322,0.10043058214475012,-0.6325588,0.24073695,0.4980242,0.5918415,-0.14237534,-0.048602574,0,0,0,0,0,0,0,0,0,0,0,0,0,0,0,0,0,0,0,0,0,0,0,0,0,0,0,0
114,2.2800000000000002,0.12465722,0.18904695,4.838079929351807,0.991535881565943,0.042082229859116645,0.07189789113611979,0.09958099591544356,-0.60756874,0.23018837,0.46473986,0.36291167,-0.12231144,-0.04222731,0,0,0,0,0,0,0,0,0,0,0,0,0,0,0,0,0,0,0,0,0,0,0,0,0,0,0,0
115,2.3000000000000003,0.1127553,0.19353324,4.847046375274658,0.9915807879034171,0.04454498071025479,0.07066496566488215,0.0989431573275407,-0.58263904,0.21827802,0.43212464,0.11764278,-0.19014,-0.039934326,0,0,0,0,0,0,0,0,0,0,0,0,0,0,0,0,0,0,0,0,0,0,0,0,0,0,0,0
116,2.32,0.10135135,0.1977726,4.855386257171631,0.9917670953019414,0.04521392901007737,0.06834581446644791,0.0984000962638741,-0.557785,0.20555742,0.40247154,0.0040760958,-0.29067242,-0.041835357,0,0,0,0,0,0,0,0,0,0,0,0,0,0,0,0,0,0,0,0,0,0,0,0,0,0,0,0
117,2.34,0.09044235,0.20175141,4.863178253173828,0.99201481262391,0.04574604154172028,0.06517977357154345,0.09780341678680995,-0.53317624,0.19221474,0.37754238,0.07393522,-0.34438387,-0.045684077,0,0,0,0,0,0,0,0,0,0,0,0,0,0,0,0,0,0,0,0,0,0,0,0,0,0,0,0
118,2.36,0.08002091,0.20545568,4.870518207550049,0.9922011741932893,0.047591399457115824,0.06202571472592244,0.09708089070414234,-0.509063,0.17804179,0.357019,0.24609114,-0.31216326,-0.04819029,0,0,0,0,0,0,0,0,0,0,0,0,0,0,0,0,0,0,0,0,0,0,0,0,0,0,0,0
119,2.38,0.07007515,0.20886515,4.877471446990967,0.9922561862630644,0.050944202510916366,0.05968237348054468,0.09628272611914311,-0.4856222,0.16268583,0.33844003,0.36420262,-0.2198547,-0.046852574,0,0,0,0,0,0,0,0,0,0,0,0,0,0,0,0,0,0,0,0,0,0,0,0,0,0,0,0
120,2.4,0.060591336,0.21195441,4.884047985076904,0.9922142976214456,0.05459722522549226,0.058325482309574066,0.09554092686704364,-0.46286076,0.1460405,0.31891486,0.31239152,-0.13192302,-0.04167117,0,0,0,0,0,0,0,0,0,0,0,0,0,0,0,0,0,0,0,0,0,0,0,0,0,0,0,0
121,2.42,0.051557075,0.21470019,4.890213966369629,0.992194462651625,0.05684923412893039,0.057438923362976006,0.09496885250075209,-0.44064614,0.12842365,0.29731247,0.10439079,-0.10565406,-0.03556476,0,0,0,0,0,0,0,0,0,0,0,0,0,0,0,0,0,0,0,0,0,0,0,0,0,0,0,0
122,2.44,0.042962883,0.21708861,4.895936012268066,0.9923050757915695,0.05680096051447663,0.056216223291416755,0.09457284854423174,-0.41884026,0.110403955,0.27490023,-0.12728766,-0.15267555,-0.032357726,0,0,0,0,0,0,0,0,0,0,0,0,0,0,0,0,0,0,0,0,0,0,0,0,0,0,0,0
123,2.46,0.034800973,0.21911697,4.901222229003906,0.9925497541825931,0.05503302993661586,0.05416173652454828,0.09424891184896965,-0.39742672,0.09247759,0.25416124,-0.2334647,-0.22852239,-0.033862524,0,0,0,0,0,0,0,0,0,0,0,0,0,0,0,0,0,0,0,0,0,0,0,0,0,0,0,0
124,2.48,0.02706244,0.22078954,4.906126976013184,0.9928312789468414,0.05316139142110033,0.05147112993374962,0.0938650136648083,-0.37652442,0.074816726,0.23697278,-0.15913577,-0.26785967,-0.038791332,0,0,0,0,0,0,0,0,0,0,0,0,0,0,0,0,0,0,0,0,0,0,0,0,0,0,0,0
125,2.5,0.019735537,0.22211008,4.910724639892578,0.99303932675803,0.052643139407274976,0.048852142349690264,0.0933545048358697,-0.35627747,0.057212885,0.22330317,0.01840628,-0.23854297,-0.043923173,0,0,0,0,0,0,0,0,0,0,0,0,0,0,0,0,0,0,0,0,0,0,0,0,0,0,0,0
126,2.52,0.012806499,0.22307594,4.915069580078125,0.9931296902483477,0.05372220918181445,0.04694943494080453,0.092752860584381,-0.336733,0.03929146,0.21116021,0.14759263,-0.16175449,-0.046177574,0,0,0,0,0,0,0,0,0,0,0,0,0,0,0,0,0,0,0,0,0,0,0,0,0,0,0,0
127,2.54,0.0062620016,0.22367837,4.919165134429932,0.9931493409902847,0.05527021484062953,0.04588486203050105,0.09216381762099117,-0.31780416,0.020873372,0.19812067,0.11534124,-0.08905402,-0.044659644,0,0,0,0,0,0,0,0,0,0,0,0,0,0,0,0,0,0,0,0,0,0,0,0,0,0,0,0
128,2.56,9.132755e-05,0.22390887,4.9229817390441895,0.9932033392517781,0.055649271190923236,0.0452214785028186,0.09168044173680492,-0.299328,0.0021675853,0.1833579,-0.06810985,-0.0655649,-0.041421067,0,0,0,0,0,0,0,0,0,0,0,0,0,0,0,0,0,0,0,0,0,0,0,0,0,0,0,0
129,2.58,-0.0057132477,0.22376633,4.9264960289001465,0.9933723185950973,0.05395057774359108,0.044298557446630506,0.09131489264233268,-0.28118616,-0.016339168,0.16818978,-0.2795394,-0.101025134,-0.039811842,0,0,0,0,0,0,0,0,0,0,0,0,0,0,0,0,0,0,0,0,0,0,0,0,0,0,0,0
130,2.6,-0.011158414,0.2232599,4.929722309112549,0.9936448219330459,0.050657796707272565,0.04270839767114996,0.09099312197508655,-0.2634021,-0.03415668,0.15487167,-0.37807924,-0.16143936,-0.041759834,0,0,0,0,0,0,0,0,0,0,0,0,0,0,0,0,0,0,0,0,0,0,0,0,0,0,0,0
131,2.62,-0.016252676,0.22240622,4.932714462280273,0.9939351725135057,0.047258551568825954,0.040598172076910806,0.09061617167028109,-0.24612041,-0.051062122,0.14493752,-0.30870956,-0.1948977,-0.046501137,0,0,0,0,0,0,0,0,0,0,0,0,0,0,0,0,0,0,0,0,0,0,0,0,0,0,0,0
132,2.64,-0.021007573,0.2212225,4.935540676116943,0.9941594749730291,0.04514410680687699,0.03853734439565201,0.09013224189429221,-0.22947714,-0.067219995,0.13816921,-0.138302,-0.17345032,-0.051368512,0,0,0,0,0,0,0,0,0,0,0,0,0,0,0,0,0,0,0,0,0,0,0,0,0,0,0,0
133,2.66,-0.025436241,0.21971984,4.938248634338379,0.9942900566352088,0.044621446031207705,0.03706672359975508,0.08956711356305301,-0.21348646,-0.08302218,0.13264896,-0.0038145,-0.11101982,-0.05358106,0,0,0,0,0,0,0,0,0,0,0,0,0,0,0,0,0,0,0,0,0,0,0,0,0,0,0,0
134,2.68,-0.029550694,0.21790215,4.940839767456055,0.9943635670246034,0.044730021425922334,0.036318509189218015,0.08900161598317247,-0.19803156,-0.09873611,0.12610605,-0.011433506,-0.048027057,-0.052133474,0,0,0,0,0,0,0,0,0,0,0,0,0,0,0,0,0,0,0,0,0,0,0,0,0,0,0,0
135,2.7,-0.033359945,0.21577156,4.943281173706055,0.9944535034422247,0.043985032536087904,0.035958072358464856,0.08851306929797391,-0.18294373,-0.114264555,0.117717214,-0.15922807,-0.023593798,-0.048629567,0,0,0,0,0,0,0,0,0,0,0,0,0,0,0,0,0,0,0,0,0,0,0,0,0,0,0,0
136,2.72,-0.03687012,0.21333553,4.9455437660217285,0.9946148405286527,0.04148928103356208,0.03542382965435903,0.08811986638721005,-0.16811848,-0.12919477,0.10863457,-0.3423424,-0.05135442,-0.046009082,0,0,0,0,0,0,0,0,0,0,0,0,0,0,0,0,0,0,0,0,0,0,0,0,0,0,0,0
137,2.74,-0.04008664,0.21061097,4.947635650634766,0.9948403507362181,0.037572410342951376,0.03430804024718867,0.08777214194980512,-0.15359707,-0.14305119,0.10090395,-0.43424073,-0.10830828,-0.046194986,0,0,0,0,0,0,0,0,0,0,0,0,0,0,0,0,0,0,0,0,0,0,0,0,0,0,0,0
138,2.7600000000000002,-0.0430171,0.20762241,4.949599742889404,0.9950747017722447,0.0335078259181844,0.03264573998769798,0.08739461743019791,-0.13954128,-0.15558665,0.09595458,-0.37864816,-0.15020685,-0.0488211,0,0,0,0,0,0,0,0,0,0,0,0,0,0,0,0,0,0,0,0,0,0,0,0,0,0,0,0
139,2.7800000000000002,-0.045672506,0.20439549,4.951492786407471,0.9952651823291168,0.030570432593054968,0.03088069548565613,0.0869427865943222,-0.12610562,-0.16694292,0.0936705,-0.22541812,-0.14533667,-0.051734526,0,0,0,0,0,0,0,0,0,0,0,0,0,0,0,0,0,0,0,0,0,0,0,0,0,0,0,0
140,2.8000000000000003,-0.048065756,0.2009498,4.953353404998779,0.9953934653949515,0.02914354577212493,0.02953299088187199,0.0864309275573773,-0.11331601,-0.17753774,0.09239902,-0.090553805,-0.09609103,-0.05251115,0,0,0,0,0,0,0,0,0,0,0,0,0,0,0,0,0,0,0,0,0,0,0,0,0,0,0,0
141,2.82,-0.050208718,0.19729662,4.955181121826172,0.9954769604246021,0.028490393390836654,0.028841621274480332,0.08591902950156019,-0.101050004,-0.18772969,0.0900386,-0.071700715,-0.03421027,-0.0501582,0,0,0,0,0,0,0,0,0,0,0,0,0,0,0,0,0,0,0,0,0,0,0,0,0,0,0,0
142,2.84,-0.052110005,0.19344312,4.9569411277771,0.9955545883830975,0.02733067900573675,0.028619622991371153,0.08546936711055338,-0.08912035,-0.19753681,0.08561834,-0.178631,0.00018123563,-0.045954365,0,0,0,0,0,0,0,0,0,0,0,0,0,0,0,0,0,0,0,0,0,0,0,0,0,0,0,0
143,2.86,-0.05377489,0.1893999,4.9585981369018555,0.9956594815058378,0.024790419626821953,0.028376925184901612,0.08510218621928933,-0.07740156,-0.20663056,0.07995158,-0.32991296,-0.01656544,-0.042452645,0,0,0,0,0,0,0,0,0,0,0,0,0,0,0,0,0,0,0,0,0,0,0,0,0,0,0,0
144,2.88,-0.0552076,0.18518567,4.96014404296875,0.9957942244240671,0.02101629488184689,0.027637069831425234,0.08478425752604792,-0.06592066,-0.21456985,0.074866846,-0.4163466,-0.07357904,-0.041418985,0,0,0,0,0,0,0,0,0,0,0,0,0,0,0,0,0,0,0,0,0,0,0,0,0,0,0,0
145,2.9,-0.05641442,0.18082663,4.961607456207275,0.9959352725695767,0.017023281895433815,0.026267205201223304,0.0844581236838014,-0.054845985,-0.22109893,0.07187912,-0.3799706,-0.13070393,-0.04261056,0,0,0,0,0,0,0,0,0,0,0,0,0,0,0,0,0,0,0,0,0,0,0,0,0,0,0,0
146,2.92,-0.057405494,0.1763505,4.963034629821777,0.9960579440103092,0.01393904703666926,0.02457488084214853,0.08408537550168546,-0.044369232,-0.22632937,0.071230434,-0.25092444,-0.14779216,-0.044137213,0,0,0,0,0,0,0,0,0,0,0,0,0,0,0,0,0,0,0,0,0,0,0,0,0,0,0,0
147,2.94,-0.058193766,0.17177941,4.964463710784912,0.9961509371846263,0.01221955090657375,0.023088498777904684,0.08367146554241228,-0.034563273,-0.23067388,0.07171323,-0.12139616,-0.112992324,-0.043812122,0,0,0,0,0,0,0,0,0,0,0,0,0,0,0,0,0,0,0,0,0,0,0,0,0,0,0,0
148,2.96,-0.058791883,0.16712661,4.965897083282471,0.9962157704522235,0.011371379709726992,0.02219784631987609,0.08325914991482133,-0.02532518,-0.23455189,0.07143918,-0.0788845,-0.04916806,-0.040703177,0,0,0,0,0,0,0,0,0,0,0,0,0,0,0,0,0,0,0,0,0,0,0,0,0,0,0,0
149,2.98,-0.059209175,0.16239953,4.967307090759277,0.996263687463446,0.01034671958488438,0.021901467262692553,0.08289714209374226,-0.016446203,-0.23809001,0.06919103,-0.1450564,0.001171096,-0.035939373,0,0,0,0,0,0,0,0,0,0,0,0,0,0,0,0,0,0,0,0,0,0,0,0,0,0,0,0
150,3.0,-0.059450943,0.1576068,4.968653678894043,0.9963091229893238,0.00831386969426184,0.02180221949573733,0.0826055339793351,-0.007755488,-0.24105817,0.06525585,-0.26352635,0.0025262516,-0.03188458,0,0,0,0,0,0,0,0,0,0,0,0,0,0,0,0,0,0,0,0,0,0,0,0,0,0,0,0
151,3.02,-0.05952049,0.15276368,4.969916820526123,0.9963596633746423,0.0052366534338424385,0.02135792463894068,0.08236405597043363,0.0007626622,-0.24306388,0.061091326,-0.34443697,-0.048240308,-0.03024292,0,0,0,0,0,0,0,0,0,0,0,0,0,0,0,0,0,0,0,0,0,0,0,0,0,0,0,0
152,3.04,-0.059422597,0.14789256,4.9711079597473145,0.9964140896728523,0.0018540938623822036,0.020250627797466142,0.08213060520402438,0.008953888,-0.24383871,0.058273293,-0.32966882,-0.11711214,-0.03083915,0,0,0,0,0,0,0,0,0,0,0,0,0,0,0,0,0,0,0,0,0,0,0,0,0,0,0,0
153,3.06,-0.059166044,0.14301813,4.972261905670166,0.9964685542090667,-0.0008794597206868668,0.018613994015012264,0.08187286638380807,0.016595341,-0.24343388,0.057496324,-0.23011199,-0.15704928,-0.031908292,0,0,0,0,0,0,0,0,0,0,0,0,0,0,0,0,0,0,0,0,0,0,0,0,0,0,0,0
154,3.08,-0.058763433,0.13816074,4.973416805267334,0.9965190876529663,-0.0024572532070350045,0.016939107444182422,0.08158882576046056,0.023552742,-0.24220514,0.058141824,-0.11310733,-0.14148064,-0.031368338,0,0,0,0,0,0,0,0,0,0,0,0,0,0,0,0,0,0,0,0,0,0,0,0,0,0,0,0
155,3.1,-0.058228213,0.13333249,4.974586486816406,0.9965600294826551,-0.0031338482909244185,0.015739326335787607,0.08130535184669262,0.029881867,-0.24058303,0.058675688,-0.053532843,-0.08116766,-0.028262181,0,0,0,0,0,0,0,0,0,0,0,0,0,0,0,0,0,0,0,0,0,0,0,0,0,0,0,0
156,3.12,-0.05757098,0.1285385,4.975753307342529,0.996586417227043,-0.0037052966700644513,0.015214222994897062,0.08105745612720928,0.03579414,-0.23878652,0.057711132,-0.08239792,-0.016428346,-0.023537599,0,0,0,0,0,0,0,0,0,0,0,0,0,0,0,0,0,0,0,0,0,0,0,0,0,0,0,0
157,3.14,-0.056797728,0.123782896,4.976881980895996,0.9965983608606986,-0.004928443849423432,0.01511819748839213,0.08086320347162657,0.041510675,-0.23670366,0.05494786,-0.16780369,0.008463204,-0.019405814,0,0,0,0,0,0,0,0,0,0,0,0,0,0,0,0,0,0,0,0,0,0,0,0,0,0,0,0
158,3.16,-0.05591125,0.11907442,4.977945327758789,0.996601254080184,-0.006999016866025277,0.014914787413691509,0.08071247267379555,0.047114074,-0.23401679,0.05128695,-0.24121964,-0.024720544,-0.017609896,0,0,0,0,0,0,0,0,0,0,0,0,0,0,0,0,0,0,0,0,0,0,0,0,0,0,0,0
159,3.18,-0.05491461,0.11442818,4.97893762588501,0.9966032359535487,-0.009456375077585616,0.014136830243465298,0.08057739812115343,0.052496422,-0.23045133,0.048170127,-0.24766484,-0.09376293,-0.018138967,0,0,0,0,0,0,0,0,0,0,0,0,0,0,0,0,0,0,0,0,0,0,0,0,0,0,0,0
160,3.2,-0.053814396,0.10986255,4.979882717132568,0.9966120360346549,-0.011548184931779375,0.012710984211720686,0.08043332602852332,0.05743203,-0.22597586,0.04665209,-0.18146423,-0.15149115,-0.019383835,0,0,0,0,0,0,0,0,0,0,0,0,0,0,0,0,0,0,0,0,0,0,0,0,0,0,0,0
161,3.22,-0.052621644,0.10539362,4.980813980102539,0.996630428804537,-0.0127565161355311,0.011003405982441726,0.08027443387376959,0.061731536,-0.22083896,0.046746604,-0.08531267,-0.15950175,-0.019329555,0,0,0,0,0,0,0,0,0,0,0,0,0,0,0,0,0,0,0,0,0,0,0,0,0,0,0,0
162,3.24,-0.05134957,0.10103085,4.98175573348999,0.9966533610942706,-0.013121859877406562,0.009564305565311172,0.08011503399427915,0.065378554,-0.21542044,0.04743676,-0.018410467,-0.1133019,-0.016909115,0,0,0,0,0,0,0,0,0,0,0,0,0,0,0,0,0,0,0,0,0,0,0,0,0,0,0,0
163,3.2600000000000002,-0.05000973,0.096776806,4.982705593109131,0.9966710213983268,-0.013176553256550597,0.008765086954192716,0.07997766438061867,0.068548016,-0.20999178,0.047377773,-0.016416917,-0.04378076,-0.012770659,0,0,0,0,0,0,0,0,0,0,0,0,0,0,0,0,0,0,0,0,0,0,0,0,0,0,0,0
164,3.2800000000000002,-0.04860917,0.09263115,4.983640670776367,0.9966758240033667,-0.013556274951763845,0.008561207370227662,0.07987637313377234,0.07148822,-0.20456217,0.04579366,-0.06912783,0.0029943069,-0.008871003,0,0,0,0,0,0,0,0,0,0,0,0,0,0,0,0,0,0,0,0,0,0,0,0,0,0,0,0
165,3.3000000000000003,-0.047150645,0.088595755,4.9845290184021,0.9966674421271375,-0.01456608619500001,0.008522764106394935,0.07980727679037529,0.07435599,-0.1989196,0.04293293,-0.13066356,-0.0039987755,-0.007012874,0,0,0,0,0,0,0,0,0,0,0,0,0,0,0,0,0,0,0,0,0,0,0,0,0,0,0,0
166,3.3200000000000003,-0.045635585,0.08467753,4.98535680770874,0.9966530617692015,-0.016003776813907064,0.008121823761437306,0.07975330446166287,0.07712113,-0.19281355,0.039852202,-0.15365854,-0.05895774,-0.0075024413,0,0,0,0,0,0,0,0,0,0,0,0,0,0,0,0,0,0,0,0,0,0,0,0,0,0,0,0
167,3.34,-0.044067744,0.0808871,4.986130237579346,0.9966429898671793,-0.01734296681652692,0.007091720180389188,0.07969742627897977,0.07959518,-0.18614012,0.037721243,-0.12076015,-0.12331576,-0.009041352,0,0,0,0,0,0,0,0,0,0,0,0,0,0,0,0,0,0,0,0,0,0,0,0,0,0,0,0
168,3.36,-0.04245521,0.077234976,4.986875534057617,0.9966439373629333,-0.01810997827300624,0.0056012533067806075,0.07963364091923432,0.08156147,-0.17901972,0.037081685,-0.052319493,-0.15350758,-0.009738642,0,0,0,0,0,0,0,0,0,0,0,0,0,0,0,0,0,0,0,0,0,0,0,0,0,0,0,0
169,3.38,-0.04080937,0.07372744,4.9876203536987305,0.9966549285335305,-0.01818445374650226,0.0041269268006074965,0.07956913689959652,0.08292615,-0.17172942,0.037523523,0.010430915,-0.13018517,-0.008380519,0,0,0,0,0,0,0,0,0,0,0,0,0,0,0,0,0,0,0,0,0,0,0,0,0,0,0,0
170,3.4,-0.03914157,0.07036509,4.988376140594482,0.9966687611158119,-0.017846752902533104,0.003132131123988772,0.07951769476871356,0.083789065,-0.1645342,0.037992097,0.03323465,-0.06921455,-0.005213022,0,0,0,0,0,0,0,0,0,0,0,0,0,0,0,0,0,0,0,0,0,0,0,0,0,0,0,0
171,3.42,-0.03745963,0.0671447,4.989132881164551,0.9966770822823826,-0.017566239529974475,0.0027707850863719742,0.079489267400432,0.08438071,-0.15753329,0.037493598,0.010268559,-0.010299734,-0.0017848642,0,0,0,0,0,0,0,0,0,0,0,0,0,0,0,0,0,0,0,0,0,0,0,0,0,0,0,0
172,3.44,-0.03576672,0.06406308,4.989866256713867,0.9966755029404912,-0.0176821356253817,0.002795664756222136,0.07948250232985264,0.08491091,-0.15063071,0.035708316,-0.034259833,0.00893815,0.00014976412,0,0,0,0,0,0,0,0,0,0,0,0,0,0,0,0,0,0,0,0,0,0,0,0,0,0,0,0
173,3.46,-0.03406317,0.061120115,4.990555286407471,0.9966661284257601,-0.018195928968003417,0.0027278493569076775,0.07948644825178537,0.08543906,-0.14363685,0.033153486,-0.06490513,-0.021957885,-8.7940614e-05,0,0,0,0,0,0,0,0,0,0,0,0,0,0,0,0,0,0,0,0,0,0,0,0,0,0,0,0
174,3.48,-0.032349925,0.058319192,4.991194248199463,0.9966558990992963,-0.018808011292672778,0.0021800789402106626,0.07948914867830846,0.08584959,-0.13641495,0.030827247,-0.059317183,-0.07947625,-0.0016786647,0,0,0,0,0,0,0,0,0,0,0,0,0,0,0,0,0,0,0,0,0,0,0,0,0,0,0,0
175,3.5,-0.03063135,0.055665016,4.991796016693115,0.9966515221331187,-0.019145345591771244,0.00111147244388075,0.07948562008889272,0.08593926,-0.1289765,0.02955941,-0.020559818,-0.12341371,-0.0029889648,0,0,0,0,0,0,0,0,0,0,0,0,0,0,0,0,0,0,0,0,0,0,0,0,0,0,0,0
176,3.52,-0.028915554,0.053160544,4.99238395690918,0.9966552452661886,-0.019005158710653253,-0.00016141603126758526,0.07948018602545501,0.08555831,-0.121477425,0.029490242,0.028024696,-0.12453373,-0.0027060064,0,0,0,0,0,0,0,0,0,0,0,0,0,0,0,0,0,0,0,0,0,0,0,0,0,0,0,0
177,3.54,-0.027212152,0.050804917,4.992978572845459,0.996664528972951,-0.01846449047009344,-0.0011874729897557324,0.07948250868401238,0.08471636,-0.11412369,0.030018648,0.059157405,-0.08261852,-0.0006583556,0,0,0,0,0,0,0,0,0,0,0,0,0,0,0,0,0,0,0,0,0,0,0,0,0,0,0,0
178,3.56,-0.025528878,0.048593678,4.993581295013428,0.9966743613106136,-0.017807473020579397,-0.0016757188789404598,0.07950033570332028,0.083581254,-0.10704953,0.030222442,0.058738146,-0.024967577,0.0021093888,0,0,0,0,0,0,0,0,0,0,0,0,0,0,0,0,0,0,0,0,0,0,0,0,0,0,0,0
179,3.58,-0.023869386,0.04652105,4.994179725646973,0.9966801261959852,-0.0173296083499779,-0.0016747773476445856,0.07953367740289118,0.08237065,-0.10025175,0.029444598,0.03362093,0.011980479,0.004058638,0,0,0,0,0,0,0,0,0,0,0,0,0,0,0,0,0,0,0,0,0,0,0,0,0,0,0,0
180,3.6,-0.022233646,0.0445825,4.994752407073975,0.9966801681787376,-0.017151521547497443,-0.0015297663495332347,0.07957466608616813,0.08121498,-0.09361967,0.027684778,0.005212368,0.0065515614,0.0042394153,0,0,0,0,0,0,0,0,0,0,0,0,0,0,0,0,0,0,0,0,0,0,0,0,0,0,0,0
181,3.62,-0.020620579,0.04277602,4.9952850341796875,0.9966766737403433,-0.01716461383622101,-0.0016466514680906603,0.07961326894859554,0.08008601,-0.087028004,0.025573727,-0.005886624,-0.03412376,0.0029320098,0,0,0,0,0,0,0,0,0,0,0,0,0,0,0,0,0,0,0,0,0,0,0,0,0,0,0,0
182,3.64,-0.01903105,0.041101485,4.995779037475586,0.996673672155533,-0.01712977046416952,-0.002223229718575613,0.07964433090602585,0.07883105,-0.0804248,0.023948552,0.0075373086,-0.08006439,0.0013658261,0,0,0,0,0,0,0,0,0,0,0,0,0,0,0,0,0,0,0,0,0,0,0,0,0,0,0,0
183,3.66,-0.017469328,0.03955876,4.996249198913574,0.9966740456695056,-0.01684221846881597,-0.003130802848527359,0.07967047407510856,0.07728336,-0.07386379,0.023308937,0.0369778,-0.0996405,0.0008238496,0,0,0,0,0,0,0,0,0,0,0,0,0,0,0,0,0,0,0,0,0,0,0,0,0,0,0,0
184,3.68,-0.015942154,0.03814581,4.996716022491455,0.9966783261076242,-0.016252290557148455,-0.004016660408357294,0.07969970989981355,0.075377814,-0.06746945,0.023519415,0.06516753,-0.08013623,0.0018164311,0,0,0,0,0,0,0,0,0,0,0,0,0,0,0,0,0,0,0,0,0,0,0,0,0,0,0,0
185,3.7,-0.014456078,0.036858037,4.997190475463867,0.9966851579660313,-0.015480114629019114,-0.0045430999883636775,0.07973971522268875,0.0731981,-0.0613606,0.023933314,0.07712261,-0.03454035,0.0038066348,0,0,0,0,0,0,0,0,0,0,0,0,0,0,0,0,0,0,0,0,0,0,0,0,0,0,0,0
186,3.72,-0.013014857,0.03568913,4.997669696807861,0.9966920753285872,-0.014727343326170938,-0.004602331266201092,0.07979242371718734,0.07092403,-0.055583213,0.023822524,0.06900115,0.008107566,0.005601922,0,0,0,0,0,0,0,0,0,0,0,0,0,0,0,0,0,0,0,0,0,0,0,0,0,0,0,0
187,3.74,-0.011618641,0.03463275,4.998137950897217,0.9966967063923242,-0.014146703171835409,-0.004374757715532744,0.07985241230539823,0.06871651,-0.05009586,0.022831524,0.049445376,0.022014763,0.0061723776,0,0,0,0,0,0,0,0,0,0,0,0,0,0,0,0,0,0,0,0,0,0,0,0,0,0,0,0
188,3.7600000000000002,-0.010265409,0.033683944,4.9985785484313965,0.9966982757498257,-0.013755444181957711,-0.004199422746460991,0.07991057327586655,0.06662181,-0.044811323,0.02118444,0.032772668,0.0013370175,0.005348281,0,0,0,0,0,0,0,0,0,0,0,0,0,0,0,0,0,0,0,0,0,0,0,0,0,0,0,0
189,3.7800000000000002,-0.00895356,0.032839432,4.9989848136901855,0.9966979026532478,-0.013444252462189383,-0.004345984259354251,0.0799603360621243,0.064556316,-0.039659534,0.019517997,0.029538246,-0.03687076,0.003883032,0,0,0,0,0,0,0,0,0,0,0,0,0,0,0,0,0,0,0,0,0,0,0,0,0,0,0,0
190,3.8000000000000003,-0.0076839505,0.03209676,4.999363422393799,0.9966973663957043,-0.013061401066608571,-0.004843499768325521,0.08000187580325169,0.06237413,-0.03463053,0.01845368,0.040987,-0.065250225,0.0028751418,0,0,0,0,0,0,0,0,0,0,0,0,0,0,0,0,0,0,0,0,0,0,0,0,0,0,0,0
191,3.8200000000000003,-0.006460114,0.031453043,4.999728679656982,0.9966979990412456,-0.01250850594038838,-0.00547713013145312,0.08004147070012937,0.059969712,-0.029776104,0.018202648,0.059616257,-0.06465747,0.0030260356,0,0,0,0,0,0,0,0,0,0,0,0,0,0,0,0,0,0,0,0,0,0,0,0,0,0,0,0
192,3.84,-0.005286628,0.030904016,5.000094890594482,0.9967003852016243,-0.011792850830445917,-0.005942430398672017,0.08008719204205815,0.057350453,-0.025174094,0.018458968,0.07433728,-0.035807922,0.004227223,0,0,0,0,0,0,0,0,0,0,0,0,0,0,0,0,0,0,0,0,0,0,0,0,0,0,0,0
193,3.86,-0.004166758,0.030444,5.000466346740723,0.9967041743647391,-0.011013497099664978,-0.006046082167034174,0.08014322539035137,0.05463311,-0.020879459,0.018622546,0.07723738,0.0025206062,0.005682792,0,0,0,0,0,0,0,0,0,0,0,0,0,0,0,0,0,0,0,0,0,0,0,0,0,0,0,0
194,3.88,-0.0031009365,0.030066747,5.00083589553833,0.9967080401079051,-0.010294335493997334,-0.005823562662545287,0.08020720390906828,0.051967923,-0.016893895,0.018189503,0.06807292,0.0265063,0.0064609167,0,0,0,0,0,0,0,0,0,0,0,0,0,0,0,0,0,0,0,0,0,0,0,0,0,0,0,0
195,3.9,-0.0020870627,0.029766472,5.001189708709717,0.9967105517789501,-0.009708453548189298,-0.005504030384226918,0.08027158620416608,0.049444716,-0.013171681,0.017064955,0.05365178,0.02291813,0.0061199744,0,0,0,0,0,0,0,0,0,0,0,0,0,0,0,0,0,0,0,0,0,0,0,0,0,0,0,0
196,3.92,-0.001122303,0.02953852,5.001515865325928,0.9967112049087842,-0.009242171165748877,-0.0053516075257169895,0.08032880291846438,0.047044832,-0.009653307,0.015604246,0.04293036,-0.0027969677,0.004977142,0,0,0,0,0,0,0,0,0,0,0,0,0,0,0,0,0,0,0,0,0,0,0,0,0,0,0,0
197,3.94,-0.0002051298,0.029379236,5.001814842224121,0.9967104764188242,-0.008815486877637982,-0.005492408785544931,0.08037628278169494,0.044665862,-0.0063018594,0.014361509,0.04161467,-0.03121652,0.0038399613,0,0,0,0,0,0,0,0,0,0,0,0,0,0,0,0,0,0,0,0,0,0,0,0,0,0,0,0
198,3.96,0.0006637106,0.029285315,5.002094268798828,0.9967092659735104,-0.008337187337792566,-0.005842450897012106,0.08041763610898253,0.042196978,-0.0031206768,0.013723029,0.049400844,-0.04258081,0.0034350727,0,0,0,0,0,0,0,0,0,0,0,0,0,0,0,0,0,0,0,0,0,0,0,0,0,0,0,0
199,3.98,0.0014818333,0.02925303,5.002368450164795,0.9967084927715099,-0.0077587057477011764,-0.006176769105475487,0.08046011711204114,0.039594904,-0.0001452378,0.01367296,0.060687665,-0.029556485,0.003950037,0,0,0,0,0,0,0,0,0,0,0,0,0,0,0,0,0,0,0,0,0,0,0,0,0,0,0,0
200,4.0,0.002246957,0.02927784,5.00264310836792,0.996708745080837,-0.007098877789299769,-0.006284042991793093,0.08050959083980679,0.03691272,0.0025833629,0.0138296615,0.06812927,-0.0010011916,0.0049584573,0,0,0,0,0,0,0,0,0,0,0,0,0,0,0,0,0,0,0,0,0,0,0,0,0,0,0,0
201,4.0200000000000005,0.0029585734,0.029354572,5.002919673919678,0.9967098157806652,-0.0064280262063355215,-0.006101715856264688,0.08056669702285477,0.034264177,0.0050462023,0.013708379,0.06710385,0.024792412,0.0057348954,0,0,0,0,0,0,0,0,0,0,0,0,0,0,0,0,0,0,0,0,0,0,0,0,0,0,0,0
202,4.04,0.0036184439,0.029478,5.003188133239746,0.9967108041153827,-0.005822709250605844,-0.0057473140584914225,0.08062653035920131,0.031749837,0.007258181,0.013034051,0.058306362,0.032431744,0.0057454277,0,0,0,0,0,0,0,0,0,0,0,0,0,0,0,0,0,0,0,0,0,0,0,0,0,0,0,0
203,4.0600000000000005,0.0042296685,0.029643474,5.0034379959106445,0.9967108935717081,-0.005320875566185061,-0.005431822558586125,0.08068195722953331,0.029396793,0.009257887,0.011906477,0.04686097,0.019239018,0.0049893693,0,0,0,0,0,0,0,0,0,0,0,0,0,0,0,0,0,0,0,0,0,0,0,0,0,0,0,0
204,4.08,0.0047950386,0.029847162,5.003664016723633,0.9967098805798688,-0.004904585474695439,-0.005317526310294261,0.08072845167426745,0.027150396,0.011084998,0.010715433,0.03893227,-0.0038080509,0.00396163,0,0,0,0,0,0,0,0,0,0,0,0,0,0,0,0,0,0,0,0,0,0,0,0,0,0,0,0
205,4.1,0.0053157727,0.03008586,5.00386905670166,0.9967080804496484,-0.0045163298676446995,-0.005416723377448019,0.08076672730002338,0.024918279,0.012760459,0.009872246,0.038153853,-0.02019359,0.0032857605,0,0,0,0,0,0,0,0,0,0,0,0,0,0,0,0,0,0,0,0,0,0,0,0,0,0,0,0
206,4.12,0.005791408,0.030356532,5.004062175750732,0.9967060438431977,-0.0040955469738636185,-0.0055949870356204225,0.08080213352070478,0.022634763,0.014279942,0.009545475,0.04371272,-0.018976176,0.0032994132,0,0,0,0,0,0,0,0,0,0,0,0,0,0,0,0,0,0,0,0,0,0,0,0,0,0,0,0
207,4.14,0.006220833,0.030655868,5.004252910614014,0.9967043670039599,-0.003614210507126401,-0.005668877767472019,0.0808406216113122,0.020304153,0.0156225925,0.009570398,0.051002797,-0.0013954414,0.0038648506,0,0,0,0,0,0,0,0,0,0,0,0,0,0,0,0,0,0,0,0,0,0,0,0,0,0,0,0
208,4.16,0.0066037243,0.030980114,5.004443645477295,0.9967033090449152,-0.0030918712296356204,-0.005527930005043014,0.08088507934764565,0.01799621,0.016768944,0.009575485,0.054539584,0.020827802,0.0044956477,0,0,0,0,0,0,0,0,0,0,0,0,0,0,0,0,0,0,0,0,0,0,0,0,0,0,0,0
209,4.18,0.0069414335,0.031325288,5.004632472991943,0.9967025943950168,-0.0025815943632251873,-0.005201216131183955,0.08093343590595255,0.015798802,0.017716676,0.009232,0.051376518,0.033746284,0.0046953517,0,0,0,0,0,0,0,0,0,0,0,0,0,0,0,0,0,0,0,0,0,0,0,0,0,0,0,0
210,4.2,0.0072367685,0.03168757,5.004809856414795,0.9967017154483109,-0.002136342519531419,-0.004829636912370526,0.08098025111302226,0.013761782,0.018484596,0.008462598,0.04277042,0.03034593,0.0042823027,0,0,0,0,0,0,0,0,0,0,0,0,0,0,0,0,0,0,0,0,0,0,0,0,0,0,0,0
211,4.22,0.0074928897,0.032063667,5.004969596862793,0.9967003857345478,-0.001777767502420871,-0.004567638055419564,0.08102047458454978,0.011869767,0.019103598,0.0074767303,0.03315829,0.014640835,0.0034864745,0,0,0,0,0,0,0,0,0,0,0,0,0,0,0,0,0,0,0,0,0,0,0,0,0,0,0,0
212,4.24,0.007712103,0.0324509,5.005110263824463,0.9966986336371398,-0.0014856612975291859,-0.004482686530946234,0.08105264978908934,0.010058783,0.01960169,0.006617494,0.027342027,-0.0017254208,0.0027646818,0,0,0,0,0,0,0,0,0,0,0,0,0,0,0,0,0,0,0,0,0,0,0,0,0,0,0,0
213,4.26,0.007895328,0.032847017,5.005236625671387,0.9966966453666672,-0.0012122831809416694,-0.004518424751717077,0.08107966034761159,0.008262206,0.019992301,0.0061318944,0.027607525,-0.0076131877,0.0024835719,0,0,0,0,0,0,0,0,0,0,0,0,0,0,0,0,0,0,0,0,0,0,0,0,0,0,0,0
214,4.28,0.008042508,0.03324985,5.005358695983887,0.996694678422726,-0.0009121549105637783,-0.004540728805760206,0.08110652106428123,0.0064549223,0.020271929,0.006019511,0.032402877,0.0004613192,0.002692987,0,0,0,0,0,0,0,0,0,0,0,0,0,0,0,0,0,0,0,0,0,0,0,0,0,0,0,0
215,4.3,0.008153654,0.033657063,5.005480766296387,0.9966929516844986,-0.0005697180567291996,-0.004430400845349945,0.08113696464698976,0.0046678693,0.020427845,0.0060496805,0.037395686,0.016683333,0.0031227903,0,0,0,0,0,0,0,0,0,0,0,0,0,0,0,0,0,0,0,0,0,0,0,0,0,0,0,0
216,4.32,0.008229792,0.034066066,5.005601406097412,0.9966914733251133,-0.00020785146092055178,-0.004159340525460851,0.08117119985055342,0.0029650533,0.020451002,0.0059240577,0.038294468,0.030368961,0.0033825615,0,0,0,0,0,0,0,0,0,0,0,0,0,0,0,0,0,0,0,0,0,0,0,0,0,0,0,0
217,4.34,0.008273195,0.034474228,5.005716323852539,0.9966900818814837,0.00012789854653047066,-0.003802603938986858,0.08120593897201162,0.0014003452,0.020345908,0.0054731197,0.033562794,0.03320688,0.0032232327,0,0,0,0,0,0,0,0,0,0,0,0,0,0,0,0,0,0,0,0,0,0,0,0,0,0,0,0
218,4.36,0.008286812,0.034879167,5.005818843841553,0.9966886636031836,0.0003985850168288762,-0.003482939774185702,0.08123680265380682,-1.5937805e-05,0.02013144,0.0047578802,0.02525918,0.024469564,0.002688571,0,0,0,0,0,0,0,0,0,0,0,0,0,0,0,0,0,0,0,0,0,0,0,0,0,0,0,0
219,4.38,0.008273316,0.035278928,5.005906581878662,0.996687233449279,0.0005956732164634152,-0.003288338039144943,0.081261249594023,-0.0013197389,0.019832905,0.004015669,0.01759354,0.010935402,0.0020626448,0,0,0,0,0,0,0,0,0,0,0,0,0,0,0,0,0,0,0,0,0,0,0,0,0,0,0,0
220,4.4,0.008234402,0.035672065,5.005980968475342,0.9966858255850898,0.0007452331174545055,-0.003218064889975859,0.08128009451109576,-0.0025663928,0.019470826,0.003494872,0.014232915,0.001920349,0.0016640325,0,0,0,0,0,0,0,0,0,0,0,0,0,0,0,0,0,0,0,0,0,0,0,0,0,0,0,0
221,4.42,0.008170782,0.0360574,5.006048202514648,0.9966844390387044,0.0008907648229218174,-0.0031902265206434316,0.08129672792234832,-0.0037936694,0.019053133,0.0032943266,0.016014742,0.0030597094,0.001637319,0,0,0,0,0,0,0,0,0,0,0,0,0,0,0,0,0,0,0,0,0,0,0,0,0,0,0,0
222,4.44,0.008082798,0.036433786,5.006113052368164,0.9966830800890983,0.0010655661910877225,-0.003101140602587439,0.08131473027541446,-0.0049987854,0.018575162,0.0033103838,0.020489512,0.012969849,0.0018775442,0,0,0,0,0,0,0,0,0,0,0,0,0,0,0,0,0,0,0,0,0,0,0,0,0,0,0,0
223,4.46,0.0079712365,0.036799934,5.00617790222168,0.9966817553110768,0.001272150936731665,-0.002894178811161128,0.08133562559563896,-0.006143282,0.018027337,0.003317379,0.023590794,0.02468791,0.0021198154,0,0,0,0,0,0,0,0,0,0,0,0,0,0,0,0,0,0,0,0,0,0,0,0,0,0,0,0
224,4.48,0.007837791,0.03715438,5.006242275238037,0.9966804647679373,0.001481939772139852,-0.002593125889056422,0.08135804018413814,-0.007180909,0.017405627,0.003120977,0.022321127,0.030572135,0.0021225717,0,0,0,0,0,0,0,0,0,0,0,0,0,0,0,0,0,0,0,0,0,0,0,0,0,0,0,0
225,4.5,0.0076848827,0.037495714,5.006300449371338,0.9966792547370231,0.001654943146356498,-0.0022812469951573855,0.0813788685850435,-0.008088597,0.016717901,0.0026815904,0.0166367,0.027287422,0.0018217607,0,0,0,0,0,0,0,0,0,0,0,0,0,0,0,0,0,0,0,0,0,0,0,0,0,0,0,0
226,4.5200000000000005,0.0075150346,0.03782278,5.006348609924316,0.996678225708114,0.001765940670924796,-0.002043413433048763,0.08139545634993381,-0.008880012,0.015982388,0.0021299806,0.009345179,0.017638719,0.0013574064,0,0,0,0,0,0,0,0,0,0,0,0,0,0,0,0,0,0,0,0,0,0,0,0,0,0,0,0
227,4.54,0.0073301992,0.038134832,5.0063862800598145,0.9966774275784839,0.00182026149477407,-0.001911469669365712,0.0814072373154239,-0.009594546,0.015219654,0.0016708077,0.004201334,0.00829105,0.00096491165,0,0,0,0,0,0,0,0,0,0,0,0,0,0,0,0,0,0,0,0,0,0,0,0,0,0,0,0
228,4.5600000000000005,0.0071315034,0.038431484,5.006417274475098,0.9966767723728185,0.001849660950622668,-0.001847975795484125,0.08141606200454746,-0.01027091,0.014443374,0.0014450491,0.0034695212,0.0051623625,0.0008144131,0,0,0,0,0,0,0,0,0,0,0,0,0,0,0,0,0,0,0,0,0,0,0,0,0,0,0,0
229,4.58,0.0069195176,0.038712498,5.006445407867432,0.9966761192359905,0.00189144621915683,-0.0017759314317474504,0.08142470045038891,-0.010923256,0.013655527,0.0014434254,0.006514793,0.009674005,0.0009087457,0,0,0,0,0,0,0,0,0,0,0,0,0,0,0,0,0,0,0,0,0,0,0,0,0,0,0,0
230,4.6000000000000005,0.006694844,0.03897759,5.006475925445557,0.9966753760197126,0.001964612818388317,-0.0016316547622699175,0.08143508356461104,-0.011534833,0.012848965,0.0015225733,0.010313214,0.018194944,0.0010972077,0,0,0,0,0,0,0,0,0,0,0,0,0,0,0,0,0,0,0,0,0,0,0,0,0,0,0,0
231,4.62,0.006458625,0.03922628,5.006506443023682,0.9966745421101617,0.0020585670960798197,-0.0014050037492995856,0.08144719378514337,-0.012072192,0.012015654,0.0015060486,0.011514904,0.024771545,0.0011855039,0,0,0,0,0,0,0,0,0,0,0,0,0,0,0,0,0,0,0,0,0,0,0,0,0,0,0,0
232,4.64,0.006212637,0.03945803,5.006535053253174,0.9966737190982794,0.0021415209350945374,-0.0011420830681758993,0.08145923638945855,-0.012509237,0.011155088,0.0013004579,0.008639733,0.02513326,0.0010636982,0,0,0,0,0,0,0,0,0,0,0,0,0,0,0,0,0,0,0,0,0,0,0,0,0,0,0,0
233,4.66,0.0059589446,0.039672367,5.006557941436768,0.996673065603759,0.00218230983317182,-0.0009115253002575595,0.08146905514012115,-0.012844669,0.010277341,0.0009502114,0.0029514574,0.0193133,0.00076961133,0,0,0,0,0,0,0,0,0,0,0,0,0,0,0,0,0,0,0,0,0,0,0,0,0,0,0,0
234,4.68,0.0056993766,0.03986912,5.00657320022583,0.9966726985254568,0.002170897415766744,-0.0007587916204962581,0.0814754162534382,-0.01310213,0.009399064,0.00059901597,-0.0024819516,0.0112969745,0.00045125166,0,0,0,0,0,0,0,0,0,0,0,0,0,0,0,0,0,0,0,0,0,0,0,0,0,0,0,0
235,4.7,0.005435161,0.04004843,5.006582736968994,0.9966725645241868,0.0021244386971070897,-0.0006788400410941602,0.08147898539624433,-0.013314482,0.008535286,0.00038987998,-0.0048506344,0.0061497423,0.00026158706,0,0,0,0,0,0,0,0,0,0,0,0,0,0,0,0,0,0,0,0,0,0,0,0,0,0,0,0
236,4.72,0.005166949,0.040210675,5.006590366363525,0.9966724947145256,0.0020755202991505077,-0.0006234011234272556,0.08148154310057645,-0.013503493,0.0076923743,0.00037263992,-0.0034181986,0.0066794516,0.00026083385,0,0,0,0,0,0,0,0,0,0,0,0,0,0,0,0,0,0,0,0,0,0,0,0,0,0,0,0
237,4.74,0.0048951795,0.040356245,5.006597995758057,0.9966723231851097,0.002050762969677823,-0.0005354417407632382,0.08148489350904607,-0.01366815,0.0068665766,0.000478009,8.0009966e-05,0.011819898,0.00038703592,0,0,0,0,0,0,0,0,0,0,0,0,0,0,0,0,0,0,0,0,0,0,0,0,0,0,0,0
238,4.76,0.004620519,0.040485397,5.0066094398498535,0.9966719923090591,0.0020541074741447013,-0.00038656601966135086,0.08148969846482396,-0.013788495,0.006049051,0.0005701792,0.0026799615,0.017615965,0.0005065151,0,0,0,0,0,0,0,0,0,0,0,0,0,0,0,0,0,0,0,0,0,0,0,0,0,0,0,0
239,4.78,0.004344095,0.040598225,5.00662088394165,0.9966715695371299,0.0020656084736585204,-0.00019319105227927103,0.08149526621371711,-0.013841453,0.0052339123,0.0005384791,0.002181625,0.019985361,0.0005049942,0,0,0,0,0,0,0,0,0,0,0,0,0,0,0,0,0,0,0,0,0,0,0,0,0,0,0,0
240,4.8,0.004067382,0.040694788,5.0066304206848145,0.996671216571218,0.002055871337367172,-2.698172382489014e-06,0.08150005793993219,-0.013817473,0.0044238986,0.00036685346,-0.0014513823,0.017343834,0.00035831035,0,0,0,0,0,0,0,0,0,0,0,0,0,0,0,0,0,0,0,0,0,0,0,0,0,0,0,0
241,4.82,0.0037918447,0.04077529,5.006635665893555,0.9966710789499355,0.0020060357682886365,0.00013922270380287613,0.08150286389021286,-0.013727167,0.0036300188,0.00013761403,-0.0061733685,0.011429281,0.00013968704,0,0,0,0,0,0,0,0,0,0,0,0,0,0,0,0,0,0,0,0,0,0,0,0,0,0,0,0
242,4.84,0.0035185793,0.040840194,5.006636619567871,0.9966711838080762,0.0019199655175062968,0.00021769807086185623,0.0815034827879734,-0.013594546,0.0028656977,-2.9028652e-05,-0.009289656,0.005933488,-3.568428e-05,0,0,0,0,0,0,0,0,0,0,0,0,0,0,0,0,0,0,0,0,0,0,0,0,0,0,0,0
243,4.86,0.0032481912,0.04089018,5.006636619567871,0.9966714116529825,0.0018211258674656811,0.0002558196370038778,0.081502854247809,-0.013442279,0.0021394384,-5.5400124e-05,-0.0092425225,0.00398562,-8.796477e-05,0,0,0,0,0,0,0,0,0,0,0,0,0,0,0,0,0,0,0,0,0,0,0,0,0,0,0,0
244,4.88,0.0029809587,0.040926028,5.006636619567871,0.9966715942845946,0.0017367771268667264,0.0002969166312134823,0.08150232261678161,-0.013278903,0.0014507719,4.604223e-05,-0.0065776757,0.0061988686,-1.9516345e-05,0,0,0,0,0,0,0,0,0,0,0,0,0,0,0,0,0,0,0,0,0,0,0,0,0,0,0,0
245,4.9,0.0027171639,0.040948413,5.006639003753662,0.9966716215630668,0.0016803449521912608,0.0003752737588671491,0.08150284891520293,-0.013096009,0.00079205533,0.00018668058,-0.003491018,0.010478729,9.407965e-05,0,0,0,0,0,0,0,0,0,0,0,0,0,0,0,0,0,0,0,0,0,0,0,0,0,0,0,0
246,4.92,0.0024573652,0.040957846,5.006642818450928,0.9966715040419587,0.0016436102413355162,0.0004948799981299538,0.08150439662927332,-0.012876499,0.00015479609,0.00026373984,-0.0023089694,0.013569689,0.00015799943,0,0,0,0,0,0,0,0,0,0,0,0,0,0,0,0,0,0,0,0,0,0,0,0,0,0,0,0
247,4.94,0.0022024375,0.040954728,5.006646633148193,0.9966713534596995,0.0016034706135950605,0.0006291789675327815,0.08150611148023737,-0.012607812,-0.00046383668,0.00022718786,-0.0039588,0.013222775,0.000119353324,0,0,0,0,0,0,0,0,0,0,0,0,0,0,0,0,0,0,0,0,0,0,0,0,0,0,0,0
248,4.96,0.0019533776,0.040939458,5.006650447845459,0.9966713089357545,0.001538101126532794,0.0007403491455709151,0.08150698173995258,-0.012291187,-0.0010586389,0.00010802623,-0.00744047,0.009552006,-3.0497622e-06,0,0,0,0,0,0,0,0,0,0,0,0,0,0,0,0,0,0,0,0,0,0,0,0,0,0,0,0
249,4.98,0.0017110137,0.040912613,5.006650924682617,0.9966714487048144,0.0014414509008408498,0.0008043400603950505,0.08150643283210311,-0.011941379,-0.0016194846,-7.737923e-06,-0.010579211,0.0047835913,-0.00013729256,0,0,0,0,0,0,0,0,0,0,0,0,0,0,0,0,0,0,0,0,0,0,0,0,0,0,0,0
250,5.0,0.0014758136,0.040874965,5.006650924682617,0.9966717267712996,0.0013267506459268901,0.0008252384983774568,0.08150477144842816,-0.011577761,-0.0021376282,-3.845815e-05,-0.011504481,0.0016740971,-0.00020834524,0,0,0,0,0,0,0,0,0,0,0,0,0,0,0,0,0,0,0,0,0,0,0,0,0,0,0,0
251,5.0200000000000005,0.0012479069,0.04082741,5.006650924682617,0.9966720178858718,0.0012172303670698159,0.0008305936694350581,0.0815028663771667,-0.011213161,-0.0026109703,4.053947e-05,-0.0098583205,0.0017192137,-0.00018547536,0,0,0,0,0,0,0,0,0,0,0,0,0,0,0,0,0,0,0,0,0,0,0,0,0,0,0,0
252,5.04,0.0010272913,0.04077079,5.006653308868408,0.9966722129420216,0.001130716944828558,0.0008521785491266245,0.08150150440430319,-0.010847617,-0.0030448851,0.00018466829,-0.006953358,0.004300621,-9.771241e-05,0,0,0,0,0,0,0,0,0,0,0,0,0,0,0,0,0,0,0,0,0,0,0,0,0,0,0,0
253,5.0600000000000005,0.00081407826,0.040705815,5.00665807723999,0.9966722666054895,0.001068520004699503,0.0009055049281333663,0.08150111229486831,-0.0104707135,-0.0034482086,0.00031306862,-0.004826547,0.0072396044,-1.0503593e-05,0,0,0,0,0,0,0,0,0,0,0,0,0,0,0,0,0,0,0,0,0,0,0,0,0,0,0,0
254,5.08,0.0006086217,0.040633023,5.0066657066345215,0.9966722324552649,0.0010156726997641162,0.0009812205431321559,0.08150132923977896,-0.01007041,-0.0038272135,0.00036271452,-0.004871216,0.00829779,1.7978262e-05,0,0,0,0,0,0,0,0,0,0,0,0,0,0,0,0,0,0,0,0,0,0,0,0,0,0,0,0
255,5.1000000000000005,0.00041145188,0.040552888,5.006673336029053,0.996672210621933,0.0009518069828680797,0.0010529725968162723,0.0815014716809881,-0.0096422145,-0.0041816426,0.00032728075,-0.0069627957,0.0066045206,-2.75204e-05,0,0,0,0,0,0,0,0,0,0,0,0,0,0,0,0,0,0,0,0,0,0,0,0,0,0,0,0
256,5.12,0.0002230773,0.04046596,5.006679534912109,0.9966722895224973,0.0008649683990532375,0.001095520183582101,0.08150091387941234,-0.009192805,-0.004505309,0.0002570617,-0.009627489,0.0031100523,-0.00011331312,0,0,0,0,0,0,0,0,0,0,0,0,0,0,0,0,0,0,0,0,0,0,0,0,0,0,0,0
257,5.14,4.3787546e-05,0.04037293,5.006683349609375,0.9966724842096951,0.0007591862306130549,0.001100827408790928,0.08149951554799825,-0.008736234,-0.004790618,0.00022256971,-0.011076306,-0.00015350184,-0.00018221742,0,0,0,0,0,0,0,0,0,0,0,0,0,0,0,0,0,0,0,0,0,0,0,0,0,0,0,0
258,5.16,-0.00012641445,0.040274613,5.006687164306641,0.9966727280215796,0.0006512187673773043,0.0010820139649125652,0.0814977200780424,-0.008285688,-0.005033882,0.00026779054,-0.010391928,-0.0014410205,-0.00019121183,0,0,0,0,0,0,0,0,0,0,0,0,0,0,0,0,0,0,0,0,0,0,0,0,0,0,0,0
259,5.18,-0.00028771747,0.040171836,5.0066938400268555,0.9966729345623236,0.0005591099770304252,0.0010635937394618948,0.08149612061514007,-0.007846339,-0.005237904,0.0003834879,-0.008078887,-0.00037805524,-0.00013713403,0,0,0,0,0,0,0,0,0,0,0,0,0,0,0,0,0,0,0,0,0,0,0,0,0,0,0,0
260,5.2,-0.00044031453,0.04006531,5.006702423095703,0.9966730429717623,0.0004905357248477304,0.0010651955783089802,0.08149521548220125,-0.0074137375,-0.005410269,0.00051638245,-0.0056561627,0.0019047555,-5.5589626e-05,0,0,0,0,0,0,0,0,0,0,0,0,0,0,0,0,0,0,0,0,0,0,0,0,0,0,0,0
261,5.22,-0.0005842481,0.03995559,5.0067138671875,0.9966730543325031,0.0004385060895262824,0.0010895883250485164,0.08149505063014925,-0.0069783996,-0.0055586374,0.00060620665,-0.0046129082,0.0035970968,4.269173e-06,0,0,0,0,0,0,0,0,0,0,0,0,0,0,0,0,0,0,0,0,0,0,0,0,0,0,0,0
262,5.24,-0.00071938266,0.039843105,5.006725311279297,0.9966730228636792,0.00038687382438260236,0.0011222428183587107,0.08149525382178194,-0.006533225,-0.005686269,0.0006245839,-0.005438921,0.003401585,1.121606e-05,0,0,0,0,0,0,0,0,0,0,0,0,0,0,0,0,0,0,0,0,0,0,0,0,0,0,0,0
263,5.26,-0.00084551325,0.03972829,5.006736755371094,0.996673022623703,0.0003215197529718252,0.0011418877356234914,0.08149526790912023,-0.006078813,-0.0057907146,0.00059086207,-0.0073653925,0.001319054,-3.0156127e-05,0,0,0,0,0,0,0,0,0,0,0,0,0,0,0,0,0,0,0,0,0,0,0,0,0,0,0,0
264,5.28,-0.0009625283,0.03961167,5.006748199462891,0.996673094288205,0.0002395420637595974,0.001134616775157566,0.08149477520889369,-0.0056234566,-0.005866359,0.00055631046,-0.008942852,-0.0014408745,-8.5012056e-05,0,0,0,0,0,0,0,0,0,0,0,0,0,0,0,0,0,0,0,0,0,0,0,0,0,0,0,0
265,5.3,-0.0010705203,0.039493863,5.0067596435546875,0.9966732238209555,0.00015062843352360342,0.0011023304735011824,0.0814938469882592,-0.0051781996,-0.0059089204,0.00056881795,-0.009017241,-0.0033124953,-0.00011217998,0,0,0,0,0,0,0,0,0,0,0,0,0,0,0,0,0,0,0,0,0,0,0,0,0,0,0,0
266,5.32,-0.0011697755,0.039375536,5.006771087646484,0.9966733572731449,7.016139080202497e-05,0.0010605675654058262,0.08149287806732854,-0.0047504404,-0.005918901,0.00064232724,-0.0074711516,-0.0033882577,-9.042363e-05,0,0,0,0,0,0,0,0,0,0,0,0,0,0,0,0,0,0,0,0,0,0,0,0,0,0,0,0
267,5.34,-0.0012606572,0.039257288,5.0067853927612305,0.9966734390926871,8.93628155763861e-06,0.001027831294921298,0.08149232657206193,-0.0043402235,-0.0059017646,0.00075017114,-0.005237534,-0.0019490196,-3.0385365e-05,0,0,0,0,0,0,0,0,0,0,0,0,0,0,0,0,0,0,0,0,0,0,0,0,0,0,0,0
268,5.36,-0.0013434612,0.039139595,5.006800651550293,0.9966734467743913,-3.3510249754400025e-05,0.0010137787306766881,0.08149240225078128,-0.003941401,-0.005864893,0.0008445896,-0.0036322637,-0.00020211625,3.427194e-05,0,0,0,0,0,0,0,0,0,0,0,0,0,0,0,0,0,0,0,0,0,0,0,0,0,0,0,0
269,5.38,-0.0014183392,0.03902279,5.006818771362305,0.9966733960004369,-6.789117700809108e-05,0.0010138447129465153,0.08149300101629785,-0.0035466105,-0.0058134682,0.00088848965,-0.0034782903,0.0005459211,6.94531e-05,0,0,0,0,0,0,0,0,0,0,0,0,0,0,0,0,0,0,0,0,0,0,0,0,0,0,0,0
270,5.4,-0.0014853296,0.03890715,5.006837844848633,0.9966733346068538,-0.00010756089789601436,0.001013240281619202,0.08149371668073367,-0.003152625,-0.005748037,0.00087827817,-0.00460374,-0.00027704597,6.169401e-05,0,0,0,0,0,0,0,0,0,0,0,0,0,0,0,0,0,0,0,0,0,0,0,0,0,0,0,0
271,5.42,-0.0015444702,0.038792986,5.006855487823486,0.9966733017911601,-0.00015966945606030023,0.0009971562054457703,0.08149423097295615,-0.002762655,-0.005665239,0.0008436932,-0.006014264,-0.0021982219,2.529586e-05,0,0,0,0,0,0,0,0,0,0,0,0,0,0,0,0,0,0,0,0,0,0,0,0,0,0,0,0
272,5.44,-0.0015959141,0.038680688,5.006870746612549,0.99667331461635,-0.00022083885605469542,0.000960265884288572,0.08149437435362823,-0.0023843565,-0.0055610435,0.00082673214,-0.0065846266,-0.004070733,-8.487537e-06,0,0,0,0,0,0,0,0,0,0,0,0,0,0,0,0,0,0,0,0,0,0,0,0,0,0,0,0
273,5.46,-0.0016399734,0.038570695,5.006886005401611,0.9966733519523062,-0.0002799485396630581,0.0009095838493822579,0.08149431755767095,-0.0020251132,-0.005434251,0.0008540525,-0.005800609,-0.004841611,-1.2372975e-05,0,0,0,0,0,0,0,0,0,0,0,0,0,0,0,0,0,0,0,0,0,0,0,0,0,0,0,0
274,5.48,-0.0016770669,0.038463447,5.006904602050781,0.9966733771661223,-0.0003258087291244571,0.0008593336179600566,0.08149438411744654,-0.001687752,-0.005287961,0.0009208693,-0.0040551075,-0.004212479,2.043448e-05,0,0,0,0,0,0,0,0,0,0,0,0,0,0,0,0,0,0,0,0,0,0,0,0,0,0,0,0
275,5.5,-0.0017076117,0.03835927,5.006923675537109,0.9966733569724503,-0.0003544271046088237,0.000821562659508886,0.08149490117480275,-0.0013693768,-0.0051281606,0.0009958138,-0.0023392418,-0.0027807462,7.3147276e-05,0,0,0,0,0,0,0,0,0,0,0,0,0,0,0,0,0,0,0,0,0,0,0,0,0,0,0,0
276,5.5200000000000005,-0.0017319282,0.038258366,5.0069427490234375,0.996673289035052,-0.0003711644199109864,0.0007987674311949438,0.08149588413911518,-0.0010638764,-0.0049605067,0.0010428898,-0.0015628181,-0.0015984526,0.00011724948,0,0,0,0,0,0,0,0,0,0,0,0,0,0,0,0,0,0,0,0,0,0,0,0,0,0,0,0
277,5.54,-0.0017502187,0.038160875,5.006962776184082,0.9966731897282837,-0.00038671273368525377,0.0007830834159762494,0.08149717854302624,-0.0007662619,-0.0047874986,0.0010450428,-0.0019737603,-0.0014786832,0.0001311865,0,0,0,0,0,0,0,0,0,0,0,0,0,0,0,0,0,0,0,0,0,0,0,0,0,0,0,0
278,5.5600000000000005,-0.0017626266,0.038066905,5.00698184967041,0.9966730923993179,-0.0004098810840268387,0.0007620493363502063,0.08149845498834309,-0.00047595522,-0.0046078586,0.0010134928,-0.0030407482,-0.0024997543,0.00011330643,0,0,0,0,0,0,0,0,0,0,0,0,0,0,0,0,0,0,0,0,0,0,0,0,0,0,0,0
279,5.58,-0.0017693329,0.03797662,5.007000923156738,0.9966730215940162,-0.0004420521126041679,0.000726905379840334,0.08149947377224295,-0.00019702343,-0.00441838,0.0009788387,-0.0038436404,-0.0040011676,8.164522e-05,0,0,0,0,0,0,0,0,0,0,0,0,0,0,0,0,0,0,0,0,0,0,0,0,0,0,0,0
280,5.6000000000000005,-0.0017706244,0.037890244,5.007019996643066,0.996672979001021,-0.00047675985994056287,0.0006780082882007685,0.08150022045385856,6.4587475e-05,-0.004216897,0.0009701602,-0.0036912446,-0.0050518755,6.1556486e-05,0,0,0,0,0,0,0,0,0,0,0,0,0,0,0,0,0,0,0,0,0,0,0,0,0,0,0,0
281,5.62,-0.0017668937,0.03780802,5.0070390701293945,0.9966729452490444,-0.0005043800771813218,0.0006241103713577208,0.0815008975139373,0.00030486684,-0.0040043914,0.0009965388,-0.0025554062,-0.005054323,6.931164e-05,0,0,0,0,0,0,0,0,0,0,0,0,0,0,0,0,0,0,0,0,0,0,0,0,0,0,0,0
282,5.64,-0.0017585717,0.03773012,5.007058143615723,0.9966728938825423,-0.0005186031479929087,0.0005763739723172964,0.08150178797804068,0.00052412436,-0.0037849257,0.0010427823,-0.0010505848,-0.0041038785,0.000102388956,0,0,0,0,0,0,0,0,0,0,0,0,0,0,0,0,0,0,0,0,0,0,0,0,0,0,0,0
283,5.66,-0.001746042,0.037656635,5.007080554962158,0.9966728110323024,-0.0005203707235438856,0.0005412321721099805,0.08150303080876257,0.0007265144,-0.003563546,0.0010806026,5.3738677e-06,-0.0028825563,0.00014198085,0,0,0,0,0,0,0,0,0,0,0,0,0,0,0,0,0,0,0,0,0,0,0,0,0,0,0,0
284,5.68,-0.0017295892,0.03758757,5.007103443145752,0.9966726968454027,-0.0005168643282745929,0.0005167105243718021,0.08150460860842158,0.0009171819,-0.003343657,0.001087121,0.00013116532,-0.0021926337,0.00016589739,0,0,0,0,0,0,0,0,0,0,0,0,0,0,0,0,0,0,0,0,0,0,0,0,0,0,0,0
285,5.7,-0.0017094132,0.03752288,5.007126331329346,0.9966725706541012,-0.0005165340372230785,0.0004942873660926247,0.08150629287566667,0.0010989928,-0.0031255877,0.0010591641,-0.0005297677,-0.0024412577,0.00016278356,0,0,0,0,0,0,0,0,0,0,0,0,0,0,0,0,0,0,0,0,0,0,0,0,0,0,0,0
286,5.72,-0.0016856949,0.037462547,5.00714635848999,0.9966724560933188,-0.0005236338800419228,0.0004647829583450577,0.08150782201281723,0.0012709494,-0.00290722,0.0010140552,-0.0013429782,-0.003408073,0.00013845436,0,0,0,0,0,0,0,0,0,0,0,0,0,0,0,0,0,0,0,0,0,0,0,0,0,0,0,0
287,5.74,-0.0016586675,0.03740661,5.007165431976318,0.9966723622885977,-0.000535815820404267,0.00042430008733226426,0.08150911066199099,0.0014291843,-0.0026861215,0.0009774558,-0.0016238258,-0.0044221818,0.000111431844,0,0,0,0,0,0,0,0,0,0,0,0,0,0,0,0,0,0,0,0,0,0,0,0,0,0,0,0
288,5.76,-0.001628647,0.03735513,5.0071845054626465,0.9966722879723522,-0.0005461372184584024,0.0003764380696034177,0.08151018596761396,0.0015697402,-0.0024617163,0.00096644077,-0.0010792802,-0.004817542,0.00010047376,0,0,0,0,0,0,0,0,0,0,0,0,0,0,0,0,0,0,0,0,0,0,0,0,0,0,0,0
289,5.78,-0.0015960066,0.037308145,5.007203578948975,0.9966722147953125,-0.0005478757104863022,0.0003296015865874857,0.08151127191993905,0.0016912569,-0.0022361,0.0009790888,2.790059e-05,-0.0043544974,0.00011290296,0,0,0,0,0,0,0,0,0,0,0,0,0,0,0,0,0,0,0,0,0,0,0,0,0,0,0,0
290,5.8,-0.0015611108,0.037265662,5.007222652435303,0.9966721263670422,-0.0005389262938585548,0.0002914333640779151,0.08151255822290736,0.0017958662,-0.00201305,0.0009972636,0.001082996,-0.003346194,0.00014028835,0,0,0,0,0,0,0,0,0,0,0,0,0,0,0,0,0,0,0,0,0,0,0,0,0,0,0,0
291,5.82,-0.0015242568,0.037227586,5.007241725921631,0.9966720170166299,-0.0005229309172399967,0.0002640596875557199,0.08151409271862206,0.0018878336,-0.0017959806,0.0009993687,0.0015373412,-0.0024284797,0.00016484414,0,0,0,0,0,0,0,0,0,0,0,0,0,0,0,0,0,0,0,0,0,0,0,0,0,0,0,0
292,5.84,-0.0014856565,0.03719377,5.007260799407959,0.9966718897865465,-0.0005066487135645304,0.00024312076492766167,0.08151581631001863,0.0019709377,-0.0015862312,0.00097440154,0.0012552207,-0.0021348102,0.00017133252,0,0,0,0,0,0,0,0,0,0,0,0,0,0,0,0,0,0,0,0,0,0,0,0,0,0,0,0
293,5.86,-0.0014454703,0.037164096,5.007279872894287,0.9966717637085258,-0.0004955012377845059,0.00022099755450666483,0.08151748931818738,0.0020463415,-0.0013827656,0.00092836283,0.0005747091,-0.0025638319,0.00015638812,0,0,0,0,0,0,0,0,0,0,0,0,0,0,0,0,0,0,0,0,0,0,0,0,0,0,0,0
294,5.88,-0.001403866,0.03713844,5.007298946380615,0.9966716538241983,-0.0004902444421385574,0.0001918992887538554,0.08151893828054498,0.0021122757,-0.0011833862,0.00087933685,6.149018e-05,-0.0033450455,0.00013021447,0,0,0,0,0,0,0,0,0,0,0,0,0,0,0,0,0,0,0,0,0,0,0,0,0,0,0,0
295,5.9,-0.0013610641,0.037116744,5.0073161125183105,0.9966715623759959,-0.00048685622264573966,0.00015545997812524886,0.08152015428227066,0.0021656188,-0.0009865877,0.0008451452,0.00012890433,-0.0039019585,0.00010933057,0,0,0,0,0,0,0,0,0,0,0,0,0,0,0,0,0,0,0,0,0,0,0,0,0,0,0,0
296,5.92,-0.0013173408,0.037098955,5.007331371307373,0.9966714834555226,-0.0004795034751111709,0.00011668694124066499,0.0815212274634238,0.0022042517,-0.0007928152,0.00083228725,0.00078681385,-0.0038314022,0.00010558137,0,0,0,0,0,0,0,0,0,0,0,0,0,0,0,0,0,0,0,0,0,0,0,0,0,0,0,0
297,5.94,-0.0012729903,0.037084997,5.0073466300964355,0.9966714006453629,-0.0004644569440076253,8.247506593538074e-05,0.0815223687905435,0.0022286416,-0.00060436403,0.000832621,0.0016567813,-0.0031500694,0.00011901928,0,0,0,0,0,0,0,0,0,0,0,0,0,0,0,0,0,0,0,0,0,0,0,0,0,0,0,0
298,5.96,-0.0012282714,0.037074726,5.007361888885498,0.9966713059998088,-0.0004424562923288255,5.712959250094136e-05,0.08152366996936823,0.0022416972,-0.00042406368,0.00082945474,0.0022406948,-0.0022605085,0.00013849363,0,0,0,0,0,0,0,0,0,0,0,0,0,0,0,0,0,0,0,0,0,0,0,0,0,0,0,0
299,5.98,-0.0011833736,0.03706797,5.0073771476745605,0.9966711978752885,-0.00041801494978765117,3.9790657786768566e-05,0.08152513113171225,0.0022470753,-0.00025366666,0.00080869324,0.0022481156,-0.0016717861,0.00014927096,0,0,0,0,0,0,0,0,0,0,0,0,0,0,0,0,0,0,0,0,0,0,0,0,0,0,0,0
300,6.0,-0.0011384236,0.03706452,5.007392406463623,0.9966710856845156,-0.0003963597991261386,2.531085065035277e-05,0.08152661662745085,0.002247116,-9.300389e-05,0.00076795236,0.0017723244,-0.0016690113,0.00014273278,0,0,0,0,0,0,0,0,0,0,0,0,0,0,0,0,0,0,0,0,0,0,0,0,0,0,0,0
301,6.0200000000000005,-0.0010935249,0.037064195,5.0074076652526855,0.9966709829805765,-0.00038007016196179357,7.80379226178039e-06,0.08152795330623779,0.0022417507,5.959275e-05,0.0007172956,0.0012033994,-0.002145015,0.0001217192,0,0,0,0,0,0,0,0,0,0,0,0,0,0,0,0,0,0,0,0,0,0,0,0,0,0,0,0
302,6.04,-0.0010488031,0.03706686,5.007422924041748,0.9966708965401235,-0.0003676951266112363,-1.5542363939989806e-05,0.08152906566762105,0.002229011,0.00020595895,0.0006720319,0.00095635984,-0.002691445,9.777647e-05,0,0,0,0,0,0,0,0,0,0,0,0,0,0,0,0,0,0,0,0,0,0,0,0,0,0,0,0
303,6.0600000000000005,-0.001004429,0.037072394,5.007434844970703,0.9966708264342536,-0.0003550093952462961,-4.284378548608245e-05,0.08152996913774302,0.0022067225,0.00034678204,0.0006425466,0.0012084261,-0.002877125,8.353161e-05,0,0,0,0,0,0,0,0,0,0,0,0,0,0,0,0,0,0,0,0,0,0,0,0,0,0,0,0
304,6.08,-0.0009606034,0.03708068,5.0074462890625,0.9966707617593439,-0.0003379555906786209,-6.899130910620986e-05,0.08153081429905663,0.002174232,0.00048112962,0.0006283821,0.0018001144,-0.0025266602,8.4533756e-05,0,0,0,0,0,0,0,0,0,0,0,0,0,0,0,0,0,0,0,0,0,0,0,0,0,0,0,0
305,6.1000000000000005,-0.0009175185,0.037091576,5.007457733154297,0.9966706933375193,-0.00031529452322381956,-8.911683063083301e-05,0.08153172198391583,0.0021330582,0.000607069,0.00061911,0.0023576494,-0.0018174826,9.621758e-05,0,0,0,0,0,0,0,0,0,0,0,0,0,0,0,0,0,0,0,0,0,0,0,0,0,0,0,0
306,6.12,-0.0008753199,0.037104886,5.007469177246094,0.9966706157688057,-0.00028928086846744303,-0.00010168367396731252,0.08153275194692818,0.0020861134,0.00072291447,0.0006014741,0.0025484676,-0.0011447076,0.000107128515,0,0,0,0,0,0,0,0,0,0,0,0,0,0,0,0,0,0,0,0,0,0,0,0,0,0,0,0
307,6.140000000000001,-0.0008340945,0.037120417,5.007480621337891,0.99667053268751,-0.0002640530730033108,-0.00010926949266097541,0.08153384333237157,0.0020360781,0.0008282579,0.00056817185,0.0022881075,-0.00085658097,0.00010682591,0,0,0,0,0,0,0,0,0,0,0,0,0,0,0,0,0,0,0,0,0,0,0,0,0,0,0,0
308,6.16,-0.00079389,0.03713796,5.0074920654296875,0.9966704540072666,-0.00024292604298277885,-0.00011668126972592558,0.08153486052829101,0.0019840198,0.0009241392,0.00052233826,0.0017830686,-0.0010362607,9.264132e-05,0,0,0,0,0,0,0,0,0,0,0,0,0,0,0,0,0,0,0,0,0,0,0,0,0,0,0,0
309,6.18,-0.0007547526,0.037157338,5.007503509521484,0.9966703886086123,-0.00022635517414528638,-0.00012777574912164916,0.0815356910036983,0.0019291183,0.001012295,0.00047479046,0.0013767555,-0.0014639782,7.086138e-05,0,0,0,0,0,0,0,0,0,0,0,0,0,0,0,0,0,0,0,0,0,0,0,0,0,0,0,0
310,6.2,-0.0007167564,0.037178412,5.007511138916016,0.9966703400724475,-0.0002118930872903039,-0.0001430504857259659,0.08153629779276149,0.0018696048,0.001094029,0.00043661965,0.0013236769,-0.001774973,5.2022388e-05,0,0,0,0,0,0,0,0,0,0,0,0,0,0,0,0,0,0,0,0,0,0,0,0,0,0,0,0
311,6.22,-0.00068000803,0.037201054,5.007518768310547,0.9966703008771819,-0.00019597450311350088,-0.0001595579623316332,0.08153678608234627,0.0018042453,0.0011694524,0.00041255608,0.0016301089,-0.0017034059,4.4318323e-05,0,0,0,0,0,0,0,0,0,0,0,0,0,0,0,0,0,0,0,0,0,0,0,0,0,0,0,0
312,6.24,-0.000644624,0.03722514,5.007526397705078,0.9966702628217127,-0.00017633262009534616,-0.0001730080957604277,0.08153726866840869,0.0017333819,0.0012375525,0.00039816037,0.0020679357,-0.0012440436,4.8448732e-05,0,0,0,0,0,0,0,0,0,0,0,0,0,0,0,0,0,0,0,0,0,0,0,0,0,0,0,0
313,6.26,-0.00061069726,0.0372505,5.007534027099609,0.9966702213560161,-0.00015338890393516212,-0.00018059949511158184,0.08153780545131484,0.0016589,0.0012969961,0.00038311374,0.0023369866,-0.000640505,5.7258436e-05,0,0,0,0,0,0,0,0,0,0,0,0,0,0,0,0,0,0,0,0,0,0,0,0,0,0,0,0
314,6.28,-0.000578276,0.037276957,5.007541656494141,0.9966701754198544,-0.00012985757245993301,-0.00018273618519936511,0.08153840305680489,0.001583205,0.0013470964,0.00035837782,0.0022579217,-0.00021707195,6.1010254e-05,0,0,0,0,0,0,0,0,0,0,0,0,0,0,0,0,0,0,0,0,0,0,0,0,0,0,0,0
315,6.3,-0.0005473661,0.037304327,5.007549285888672,0.9966701296660104,-0.00010890731435999132,-0.00018260981610639763,0.0815389932755484,0.0015079161,0.0013883231,0.00032190932,0.0018829402,-0.00016423542,5.3894375e-05,0,0,0,0,0,0,0,0,0,0,0,0,0,0,0,0,0,0,0,0,0,0,0,0,0,0,0,0
316,6.32,-0.0005179558,0.037332438,5.007556438446045,0.9966700932166925,-9.212770441557549e-05,-0.00018399985852239124,0.08153945636296227,0.0014331338,0.0014220511,0.0002795805,0.0014472172,-0.00042606302,3.744611e-05,0,0,0,0,0,0,0,0,0,0,0,0,0,0,0,0,0,0,0,0,0,0,0,0,0,0,0,0
317,6.34,-0.000490045,0.037361167,5.0075602531433105,0.9966700696278278,-7.8646619264083e-05,-0.00018885082206126241,0.08153974771936219,0.0013577146,0.0014497553,0.00024086135,0.0012054406,-0.0007521541,1.9076086e-05,0,0,0,0,0,0,0,0,0,0,0,0,0,0,0,0,0,0,0,0,0,0,0,0,0,0,0,0
318,6.36,-0.00046366078,0.037390396,5.007564067840576,0.9966700586889202,-6.588180876409956e-05,-0.00019617997979219708,0.0815398754354402,0.001280308,0.0014722083,0.00021288054,0.0012697526,-0.0008685674,7.093584e-06,0,0,0,0,0,0,0,0,0,0,0,0,0,0,0,0,0,0,0,0,0,0,0,0,0,0,0,0
319,6.38,-0.0004388495,0.03742002,5.007567882537842,0.9966700537779766,-5.13188456519872e-05,-0.0002028968305093322,0.0815399294913686,0.001200453,0.0014891867,0.00019591468,0.0015461227,-0.000653477,5.285794e-06,0,0,0,0,0,0,0,0,0,0,0,0,0,0,0,0,0,0,0,0,0,0,0,0,0,0,0,0
320,6.4,-0.00041565343,0.037449922,5.007571697235107,0.9966700475616669,-3.4148155359592594e-05,-0.00020593225705195877,0.08154000686309511,0.0011190294,0.0014998439,0.00018356221,0.0018095652,-0.00020652139,1.0803483e-05,0,0,0,0,0,0,0,0,0,0,0,0,0,0,0,0,0,0,0,0,0,0,0,0,0,0,0,0
321,6.42,-0.00039408688,0.037479967,5.007575511932373,0.9966700365218885,-1.5670430048930993e-05,-0.00020421363507336628,0.08154015177007287,0.0010378171,0.0015034637,0.00016734497,0.0018575261,0.00022871309,1.6377502e-05,0,0,0,0,0,0,0,0,0,0,0,0,0,0,0,0,0,0,0,0,0,0,0,0,0,0,0,0
322,6.44,-0.0003741278,0.037510015,5.007579326629639,0.996670022762398,1.6497191445120327e-06,-0.00019926217805050838,0.08154033369237616,0.0009584985,0.0015000826,0.00014233725,0.0016340077,0.00042725704,1.52207795e-05,0,0,0,0,0,0,0,0,0,0,0,0,0,0,0,0,0,0,0,0,0,0,0,0,0,0,0,0
323,6.46,-0.0003557293,0.037539933,5.007583141326904,0.9966700143044784,1.5809091737927687e-05,-0.00019409100817630566,0.08154044803080268,0.00088176917,0.0014905995,0.00011003152,0.0012605747,0.00032680342,5.2124365e-06,0,0,0,0,0,0,0,0,0,0,0,0,0,0,0,0,0,0,0,0,0,0,0,0,0,0,0,0
324,6.48,-0.00033884286,0.03756961,5.007584571838379,0.9966700156740113,2.6523346012297553e-05,-0.00019121601076247053,0.08154043530246309,0.0008071242,0.0014763299,7.695095e-05,0.0009443297,5.71825e-05,-9.745059e-06,0,0,0,0,0,0,0,0,0,0,0,0,0,0,0,0,0,0,0,0,0,0,0,0,0,0,0,0
325,6.5,-0.0003234381,0.03759896,5.007584571838379,0.9966700292600893,3.526840885656834e-05,-0.0001911088136783796,0.081540266177228,0.0007334124,0.0014583252,5.0269522e-05,0.0008411699,-0.00015440298,-2.2808304e-05,0,0,0,0,0,0,0,0,0,0,0,0,0,0,0,0,0,0,0,0,0,0,0,0,0,0,0,0
326,6.5200000000000005,-0.0003095062,0.037627917,5.007584571838379,0.9966700504527071,4.422351305313665e-05,-0.0001920516935473755,0.08154000055817105,0.0006597568,0.0014369106,3.3358494e-05,0.0009596374,-0.0001358351,-2.852904e-05,0,0,0,0,0,0,0,0,0,0,0,0,0,0,0,0,0,0,0,0,0,0,0,0,0,0,0,0
327,6.54,-0.00029704717,0.037656408,5.007584571838379,0.9966700735773535,5.4818557715580244e-05,-0.00019140393575237154,0.08153971299171872,0.00058622943,0.0014117194,2.37693e-05,0.0011656473,0.00012705268,-2.6288953e-05,0,0,0,0,0,0,0,0,0,0,0,0,0,0,0,0,0,0,0,0,0,0,0,0,0,0,0,0
328,6.5600000000000005,-0.00028604924,0.03768436,5.007584571838379,0.996670093477577,6.687215160675432e-05,-0.00018734128129881515,0.08153947018933579,0.0005138726,0.0013821676,1.514093e-05,0.0012773171,0.00048966066,-2.0580008e-05,0,0,0,0,0,0,0,0,0,0,0,0,0,0,0,0,0,0,0,0,0,0,0,0,0,0,0,0
329,6.58,-0.00027647484,0.037711665,5.007584571838379,0.99667010836999,7.880181486421481e-05,-0.00018001729920578114,0.08153929399865058,0.00044409322,0.0013480402,1.7108104e-06,0.0011840039,0.00074628845,-1.7637763e-05,0,0,0,0,0,0,0,0,0,0,0,0,0,0,0,0,0,0,0,0,0,0,0,0,0,0,0,0
330,6.6000000000000005,-0.0002682616,0.037738252,5.007584571838379,0.9966701241248948,8.873397162963214e-05,-0.00017139657113580324,0.08153910979624768,0.0003778395,0.0013097994,-1.8128001e-05,0.0009140081,0.0007688015,-2.1309672e-05,0,0,0,0,0,0,0,0,0,0,0,0,0,0,0,0,0,0,0,0,0,0,0,0,0,0,0,0
331,6.62,-0.00026133735,0.037764043,5.007584571838379,0.9966701459346033,9.572278386096237e-05,-0.00016389751684193587,0.08153885072435729,0.00031510965,0.001268438,-4.1042415e-05,0.0006058981,0.00058551645,-3.0907988e-05,0,0,0,0,0,0,0,0,0,0,0,0,0,0,0,0,0,0,0,0,0,0,0,0,0,0,0,0
332,6.640000000000001,-0.00025563894,0.03778898,5.007584571838379,0.9966701754264419,0.00010029218924515515,-0.00015883713812471495,0.08153849475962781,0.0002550929,0.0012250028,-6.1338986e-05,0.000414495,0.00035280333,-4.1926338e-05,0,0,0,0,0,0,0,0,0,0,0,0,0,0,0,0,0,0,0,0,0,0,0,0,0,0,0,0
333,6.66,-0.00025112214,0.037813034,5.007584571838379,0.9966702131751066,0.00010402259329072697,-0.00015567336899498092,0.08153803477267309,0.00019681222,0.0011801113,-7.480486e-05,0.00041191946,0.0002471327,-4.8988506e-05,0,0,0,0,0,0,0,0,0,0,0,0,0,0,0,0,0,0,0,0,0,0,0,0,0,0,0,0
334,6.68,-0.00024775794,0.037836175,5.007584571838379,0.9966702526384604,0.00010849195067877408,-0.00015248344858272093,0.08153755259929052,0.00013982736,0.0011337668,-8.144721e-05,0.00054613507,0.00035055316,-4.94732e-05,0,0,0,0,0,0,0,0,0,0,0,0,0,0,0,0,0,0,0,0,0,0,0,0,0,0,0,0
335,6.7,-0.00024551776,0.03785838,5.007584571838379,0.9966702916078864,0.00011426729959114586,-0.00014731187922712344,0.08153707787531372,8.454296e-05,0.0010855716,-8.533819e-05,0.0006794541,0.00060207833,-4.5215726e-05,0,0,0,0,0,0,0,0,0,0,0,0,0,0,0,0,0,0,0,0,0,0,0,0,0,0,0,0
336,6.72,-0.00024435818,0.037879586,5.007584571838379,0.9966703271991806,0.00012060148619403507,-0.00013946403011631318,0.08153664750125793,3.1941505e-05,0.0010351853,-9.173973e-05,0.00068445917,0.00084740866,-4.078402e-05,0,0,0,0,0,0,0,0,0,0,0,0,0,0,0,0,0,0,0,0,0,0,0,0,0,0,0,0
337,6.74,-0.00024421565,0.03789977,5.007582187652588,0.9966703618499744,0.00012601833277066209,-0.00012987977316544202,0.08153623158121556,-1.704639e-05,0.0009827117,-0.00010370119,0.0005266061,0.00094388437,-4.045783e-05,0,0,0,0,0,0,0,0,0,0,0,0,0,0,0,0,0,0,0,0,0,0,0,0,0,0,0,0
338,6.76,-0.00024501348,0.037918888,5.007578372955322,0.9966703972746424,0.00012931415773417807,-0.00012046343264148763,0.0815358078565276,-6.2105115e-05,0.00092876883,-0.0001200281,0.0002759287,0.0008501633,-4.543842e-05,0,0,0,0,0,0,0,0,0,0,0,0,0,0,0,0,0,0,0,0,0,0,0,0,0,0,0,0
339,6.78,-0.00024667633,0.03793692,5.007574558258057,0.9966704387939102,0.00013030116103314137,-0.00011282252133546797,0.0815353096948833,-0.00010367973,0.0008742254,-0.00013608795,5.9208625e-05,0.0006472833,-5.3176544e-05,0,0,0,0,0,0,0,0,0,0,0,0,0,0,0,0,0,0,0,0,0,0,0,0,0,0,0,0
340,6.8,-0.00024914308,0.037953857,5.007570743560791,0.9966704862853273,0.0001298915827554236,-0.00010728079089414026,0.08153473730121417,-0.00014263278,0.0008197889,-0.00014706714,-2.5447967e-05,0.00047889852,-5.9325645e-05,0,0,0,0,0,0,0,0,0,0,0,0,0,0,0,0,0,0,0,0,0,0,0,0,0,0,0,0
341,6.82,-0.00025236892,0.037969712,5.007566928863525,0.9966705354583801,0.00012944872164893315,-0.00010276952433926835,0.0815341427290369,-0.00017966346,0.00076571625,-0.00015090093,3.1055522e-05,0.00045526045,-6.0546558e-05,0,0,0,0,0,0,0,0,0,0,0,0,0,0,0,0,0,0,0,0,0,0,0,0,0,0,0,0
342,6.84,-0.00025631758,0.03798449,5.00756311416626,0.9966705845521987,0.00012991747040313963,-9.762089803883063e-05,0.0815335481871704,-0.00021487502,0.0007118239,-0.00014933213,0.0001492137,0.0005850742,-5.665981e-05,0,0,0,0,0,0,0,0,0,0,0,0,0,0,0,0,0,0,0,0,0,0,0,0,0,0,0,0
343,6.86,-0.0002609483,0.037998185,5.007559299468994,0.9966706294252499,0.00013125707909294093,-9.069034021511597e-05,0.08153300551259976,-0.00024775765,0.0006577687,-0.0001464735,0.00021584088,0.00077672186,-5.0717685e-05,0,0,0,0,0,0,0,0,0,0,0,0,0,0,0,0,0,0,0,0,0,0,0,0,0,0,0,0
344,6.88,-0.00026620715,0.038010795,5.0075554847717285,0.9966706695542736,0.0001325425334534539,-8.206869190806654e-05,0.08153252202307223,-0.00027757022,0.000603409,-0.00014620172,0.00015881649,0.0009027861,-4.6754954e-05,0,0,0,0,0,0,0,0,0,0,0,0,0,0,0,0,0,0,0,0,0,0,0,0,0,0,0,0
345,6.9,-0.00027202725,0.03802232,5.007551670074463,0.9966707098191578,0.0001326238216980641,-7.296376450892595e-05,0.08153203833945838,-0.00030385208,0.000549009,-0.000149654,-8.312455e-06,0.0008854895,-4.7077214e-05,0,0,0,0,0,0,0,0,0,0,0,0,0,0,0,0,0,0,0,0,0,0,0,0,0,0,0,0
346,6.92,-0.00027833824,0.038032766,5.007547855377197,0.996670748963068,0.0001309032134458226,-6.485479873173386e-05,0.08153156946607179,-0.00032672507,0.00049516244,-0.00015482293,-0.00019960117,0.0007427808,-5.120107e-05,0,0,0,0,0,0,0,0,0,0,0,0,0,0,0,0,0,0,0,0,0,0,0,0,0,0,0,0
347,6.94,-0.00028507752,0.038042143,5.007544040679932,0.9966707941894903,0.00012770328847392555,-5.854608238265659e-05,0.0815310264495489,-0.00034680514,0.00044250043,-0.00015818702,-0.00031855734,0.0005691307,-5.6231438e-05,0,0,0,0,0,0,0,0,0,0,0,0,0,0,0,0,0,0,0,0,0,0,0,0,0,0,0,0
348,6.96,-0.00029219664,0.03805048,5.007540225982666,0.9966708435868532,0.00012401025297938,-5.3721509038578056e-05,0.08153043161499257,-0.00036481197,0.00039138782,-0.00015710936,-0.0003192417,0.00047066616,-5.8776754e-05,0,0,0,0,0,0,0,0,0,0,0,0,0,0,0,0,0,0,0,0,0,0,0,0,0,0,0,0
349,6.98,-0.00029965892,0.03805781,5.0075364112854,0.9966708934686612,0.00012082556230520653,-4.922838494823681e-05,0.08152982944990142,-0.00038114455,0.0003418022,-0.00015149938,-0.00023231847,0.00049769523,-5.7213932e-05,0,0,0,0,0,0,0,0,0,0,0,0,0,0,0,0,0,0,0,0,0,0,0,0,0,0,0,0
350,7.0,-0.0003074305,0.03806416,5.007532596588135,0.9966709383935484,0.00011853797059708279,-4.387697536038217e-05,0.0815292866722378,-0.00039569158,0.00029345992,-0.0001438199,-0.00014185763,0.00061658677,-5.2526782e-05,0,0,0,0,0,0,0,0,0,0,0,0,0,0,0,0,0,0,0,0,0,0,0,0,0,0,0,0
351,7.0200000000000005,-0.00031547138,0.038069554,5.007528781890869,0.9966709796424027,0.00011672491461180407,-3.7204527098405665e-05,0.08152878834970397,-0.00040798227,0.0002460971,-0.00013735874,-0.00012654955,0.0007367335,-4.743877e-05,0,0,0,0,0,0,0,0,0,0,0,0,0,0,0,0,0,0,0,0,0,0,0,0,0,0,0,0
352,7.04,-0.00032373145,0.03807401,5.0075249671936035,0.9966710184919078,0.00011450254104380898,-2.972727145494867e-05,0.08152831964269022,-0.0004175569,0.00019971209,-0.00013407812,-0.00020983675,0.00077225594,-4.46904e-05,0,0,0,0,0,0,0,0,0,0,0,0,0,0,0,0,0,0,0,0,0,0,0,0,0,0,0,0
353,7.0600000000000005,-0.00033215457,0.03807755,5.007521152496338,0.9966710543634496,0.00011113261158123412,-2.2555591658046927e-05,0.08152788808032281,-0.00042430763,0.00015461631,-0.00013350353,-0.000349676,0.0006943482,-4.5236666e-05,0,0,0,0,0,0,0,0,0,0,0,0,0,0,0,0,0,0,0,0,0,0,0,0,0,0,0,0
354,7.08,-0.00034068705,0.038080204,5.007517337799072,0.9966710945270553,0.00010650423840537648,-1.66790314942421e-05,0.08152740467412449,-0.0004285795,0.00011127564,-0.0001331626,-0.00046886053,0.0005458034,-4.782521e-05,0,0,0,0,0,0,0,0,0,0,0,0,0,0,0,0,0,0,0,0,0,0,0,0,0,0,0,0
355,7.1000000000000005,-0.00034928526,0.038082015,5.007513523101807,0.9966711334578845,0.00010117570496272332,-1.2345550990287365e-05,0.08152693630230352,-0.0004309846,7.0055736e-05,-0.00013038743,-0.00050720293,0.00041320216,-4.999849e-05,0,0,0,0,0,0,0,0,0,0,0,0,0,0,0,0,0,0,0,0,0,0,0,0,0,0,0,0
356,7.12,-0.00035791757,0.03808302,5.007509708404541,0.9966711735235767,9.599109537931343e-05,-8.937764477644038e-06,0.08152645320975438,-0.00043205408,3.1043255e-05,-0.00012390483,-0.0004581822,0.0003675402,-4.950724e-05,0,0,0,0,0,0,0,0,0,0,0,0,0,0,0,0,0,0,0,0,0,0,0,0,0,0,0,0
357,7.140000000000001,-0.00036655972,0.038083274,5.007505893707275,0.9966712134809046,9.154239845730682e-05,-5.422602563776879e-06,0.08152597015114744,-0.0004319612,-5.9499894e-06,-0.00011467088,-0.00036907458,0.00042016368,-4.5924415e-05,0,0,0,0,0,0,0,0,0,0,0,0,0,0,0,0,0,0,0,0,0,0,0,0,0,0,0,0
358,7.16,-0.0003751868,0.0380828,5.00750207901001,0.9966712497016602,8.782407299328026e-05,-1.03645329912004e-06,0.08152553160813453,-0.00043048878,-4.1215633e-05,-0.000105110295,-0.00030966938,0.0005169333,-4.0837716e-05,0,0,0,0,0,0,0,0,0,0,0,0,0,0,0,0,0,0,0,0,0,0,0,0,0,0,0,0
359,7.18,-0.0003837674,0.038081635,5.007498264312744,0.9966712816223006,8.428509962918061e-05,4.216622415128066e-06,0.08152514500203738,-0.0004272533,-7.4926094e-05,-9.7442746e-05,-0.00032298797,0.0005769905,-3.6669317e-05,0,0,0,0,0,0,0,0,0,0,0,0,0,0,0,0,0,0,0,0,0,0,0,0,0,0,0,0
360,7.2,-0.00039226346,0.03807981,5.0074968338012695,0.9966713105028335,8.024624937293241e-05,9.607180031001879e-06,0.08152479554593063,-0.00042202795,-0.00010701298,-9.235965e-05,-0.00040329204,0.0005470599,-3.5033136e-05,0,0,0,0,0,0,0,0,0,0,0,0,0,0,0,0,0,0,0,0,0,0,0,0,0,0,0,0
361,7.22,-0.00040063597,0.038077366,5.0074968338012695,0.9966713406224237,7.532806541853969e-05,1.4189945534322716e-05,0.08152443134563325,-0.0004149476,-0.00013720954,-8.89002e-05,-0.00050115347,0.00043633606,-3.5812584e-05,0,0,0,0,0,0,0,0,0,0,0,0,0,0,0,0,0,0,0,0,0,0,0,0,0,0,0,0
362,7.24,-0.00040885198,0.03807434,5.0074968338012695,0.9966713707579644,6.970758763381585e-05,1.7448229772339908e-05,0.08152406729213192,-0.00040646514,-0.00016521955,-8.533583e-05,-0.00055574917,0.00030627789,-3.7261434e-05,0,0,0,0,0,0,0,0,0,0,0,0,0,0,0,0,0,0,0,0,0,0,0,0,0,0,0,0
363,7.26,-0.0004168887,0.038070776,5.0074968338012695,0.9966714002632837,6.398869828380662e-05,1.9588298551400225e-05,0.08152371077772556,-0.0003971004,-0.00019090538,-8.029566e-05,-0.0005370015,0.00022506093,-3.7214268e-05,0,0,0,0,0,0,0,0,0,0,0,0,0,0,0,0,0,0,0,0,0,0,0,0,0,0,0,0
364,7.28,-0.00042473228,0.038066722,5.0074968338012695,0.9966714297047434,5.879836371230262e-05,2.1358162005984218e-05,0.0815233543034397,-0.0003871666,-0.0002143685,-7.371769e-05,-0.00046215832,0.00022621859,-3.4592977e-05,0,0,0,0,0,0,0,0,0,0,0,0,0,0,0,0,0,0,0,0,0,0,0,0,0,0,0,0
365,7.3,-0.0004323715,0.03806222,5.0074968338012695,0.9966714566352162,5.439860248985482e-05,2.3551806480910965e-05,0.08152302751211364,-0.0003766431,-0.00023587611,-6.703004e-05,-0.00038200067,0.00029002526,-3.018092e-05,0,0,0,0,0,0,0,0,0,0,0,0,0,0,0,0,0,0,0,0,0,0,0,0,0,0,0,0
366,7.32,-0.00043979226,0.038057297,5.0074968338012695,0.9966714804598711,5.0547344919067e-05,2.6494957713870994e-05,0.08152273781536008,-0.00036526442,-0.00025569065,-6.215677e-05,-0.00034760308,0.00035523393,-2.5775413e-05,0,0,0,0,0,0,0,0,0,0,0,0,0,0,0,0,0,0,0,0,0,0,0,0,0,0,0,0
367,7.34,-0.00044697453,0.038051996,5.0074968338012695,0.9966714993898823,4.669034383312881e-05,2.9846726831582952e-05,0.08152250752466193,-0.00035276683,-0.00027391498,-6.0199352e-05,-0.00037655557,0.00036402085,-2.2996917e-05,0,0,0,0,0,0,0,0,0,0,0,0,0,0,0,0,0,0,0,0,0,0,0,0,0,0,0,0
368,7.36,-0.0004538952,0.03804635,5.0074968338012695,0.9966715189283241,4.2343403131925585e-05,3.287240979551853e-05,0.08152226986258525,-0.0003391189,-0.0002904525,-6.067619e-05,-0.00044432346,0.00029833967,-2.2252842e-05,0,0,0,0,0,0,0,0,0,0,0,0,0,0,0,0,0,0,0,0,0,0,0,0,0,0,0,0
369,7.38,-0.00046053337,0.03804039,5.0074968338012695,0.9966715390952804,3.740718097746496e-05,3.4934838470970926e-05,0.08152202486264046,-0.00032458693,-0.0003050997,-6.1839666e-05,-0.00050063094,0.0001895231,-2.2554139e-05,0,0,0,0,0,0,0,0,0,0,0,0,0,0,0,0,0,0,0,0,0,0,0,0,0,0,0,0
370,7.4,-0.00046687564,0.038034152,5.0074968338012695,0.9966715586677544,3.2230405935210015e-05,3.5907274220616666e-05,0.08152178736176982,-0.00030960326,-0.00031770903,-6.1768136e-05,-0.0005057171,9.4514435e-05,-2.235633e-05,0,0,0,0,0,0,0,0,0,0,0,0,0,0,0,0,0,0,0,0,0,0,0,0,0,0,0,0
371,7.42,-0.000472917,0.03802769,5.0074968338012695,0.9966715782264656,2.7352647552466457e-05,3.621505879884457e-05,0.08152154988632394,-0.00029453577,-0.0003283079,-5.9500773e-05,-0.00045309385,5.73294e-05,-2.045946e-05,0,0,0,0,0,0,0,0,0,0,0,0,0,0,0,0,0,0,0,0,0,0,0,0,0,0,0,0
372,7.44,-0.00047865746,0.03802103,5.0074968338012695,0.9966715928876172,2.317139584684746e-05,3.652522934358003e-05,0.08152137179815984,-0.00027951447,-0.00033710335,-5.558594e-05,-0.000373784,8.165227e-05,-1.6770522e-05,0,0,0,0,0,0,0,0,0,0,0,0,0,0,0,0,0,0,0,0,0,0,0,0,0,0,0,0
373,7.46,-0.0004840971,0.038014214,5.0074968338012695,0.9966716044654095,1.968118113436478e-05,3.732332582132703e-05,0.08152123080503074,-0.00026442093,-0.00034437326,-5.154951e-05,-0.00031496593,0.00013646008,-1.2275938e-05,0,0,0,0,0,0,0,0,0,0,0,0,0,0,0,0,0,0,0,0,0,0,0,0,0,0,0,0
374,7.48,-0.0004892322,0.03800727,5.0074968338012695,0.9966716141844494,1.650494974243501e-05,3.86430154659965e-05,0.08152111207085126,-0.0002490245,-0.00035031373,-4.8833914e-05,-0.0003056248,0.00017204766,-8.46517e-06,0,0,0,0,0,0,0,0,0,0,0,0,0,0,0,0,0,0,0,0,0,0,0,0,0,0,0,0
375,7.5,-0.000494055,0.038000215,5.0074968338012695,0.9966716190301552,1.3175503933099864e-05,4.0048144350251296e-05,0.08152105275547915,-0.00023318124,-0.00035495352,-4.7875474e-05,-0.0003410167,0.00015220801,-6.548651e-06,0,0,0,0,0,0,0,0,0,0,0,0,0,0,0,0,0,0,0,0,0,0,0,0,0,0,0,0
376,7.5200000000000005,-0.00049855694,0.03799308,5.0074968338012695,0.996671623277535,9.444787519311129e-06,4.0940752697687196e-05,0.08152100090144976,-0.000216971,-0.00035818524,-4.7823025e-05,-0.0003870539,7.941903e-05,-6.5276904e-06,0,0,0,0,0,0,0,0,0,0,0,0,0,0,0,0,0,0,0,0,0,0,0,0,0,0,0,0
377,7.54,-0.0005027333,0.037985902,5.0074968338012695,0.9966716287595804,5.435239407845046e-06,4.097298914004399e-05,0.081520934227949,-0.0002006795,-0.00035988408,-4.721029e-05,-0.00040529598,-6.6561756e-06,-7.2036464e-06,0,0,0,0,0,0,0,0,0,0,0,0,0,0,0,0,0,0,0,0,0,0,0,0,0,0,0,0
378,7.5600000000000005,-0.00050658593,0.03797869,5.0074968338012695,0.9966716336472913,1.5280117693574054e-06,4.027434218900612e-05,0.08152087498599374,-0.00018463962,-0.00036002835,-4.4933393e-05,-0.00037709327,-6.138239e-05,-6.9599887e-06,0,0,0,0,0,0,0,0,0,0,0,0,0,0,0,0,0,0,0,0,0,0,0,0,0,0,0,0
379,7.58,-0.0005101221,0.0379715,5.0074968338012695,0.9966716385319082,-1.8814520751666046e-06,3.9326322727725406e-05,0.08152081572225409,-0.00016905226,-0.00035874735,-4.096134e-05,-0.00031393883,-6.289846e-05,-5.1063494e-06,0,0,0,0,0,0,0,0,0,0,0,0,0,0,0,0,0,0,0,0,0,0,0,0,0,0,0,0
380,7.6000000000000005,-0.0005133511,0.03796435,5.0074968338012695,0.9966716421848387,-4.638926291824924e-06,3.864257637401107e-05,0.0815207712782976,-0.00015390328,-0.0003562727,-3.621681e-05,-0.00024905635,-2.3789647e-05,-2.1457663e-06,0,0,0,0,0,0,0,0,0,0,0,0,0,0,0,0,0,0,0,0,0,0,0,0,0,0,0,0
381,7.62,-0.0005162802,0.03795726,5.0074968338012695,0.9966716421722513,-6.913562724163508e-06,3.8441010325750285e-05,0.0815207713663164,-0.00013902005,-0.00035282705,-3.2011107e-05,-0.00021395786,1.8579585e-05,8.2005675e-07,0,0,0,0,0,0,0,0,0,0,0,0,0,0,0,0,0,0,0,0,0,0,0,0,0,0,0,0
382,7.640000000000001,-0.00051891257,0.037950244,5.0074968338012695,0.9966716421443851,-9.066556719067067e-06,3.85404257625119e-05,0.08152077144904626,-0.00012422306,-0.00034852623,-2.9226376e-05,-0.00022002227,2.953461e-05,2.6619064e-06,0,0,0,0,0,0,0,0,0,0,0,0,0,0,0,0,0,0,0,0,0,0,0,0,0,0,0,0
383,7.66,-0.0005212493,0.037943322,5.0074968338012695,0.9966716390769663,-1.1417144059209654e-05,3.851292331126488e-05,0.08152080866893485,-0.000109465334,-0.00034335387,-2.7679038e-05,-0.00025119193,-3.6891372e-06,3.0562142e-06,0,0,0,0,0,0,0,0,0,0,0,0,0,0,0,0,0,0,0,0,0,0,0,0,0,0,0,0
384,7.68,-0.0005232923,0.037936512,5.0074968338012695,0.9966716378418427,-1.4029032349336682e-05,3.7963433296782645e-05,0.08152082361963155,-9.487768e-05,-0.00033722178,-2.6415417e-05,-0.00027510716,-6.6142595e-05,2.5426968e-06,0,0,0,0,0,0,0,0,0,0,0,0,0,0,0,0,0,0,0,0,0,0,0,0,0,0,0,0
385,7.7,-0.00052504713,0.03792984,5.0074968338012695,0.9966716378376189,-1.6682929941330725e-05,3.6781170560148394e-05,0.08152082371335184,-8.070083e-05,-0.00033007746,-2.4410318e-05,-0.000267168,-0.00012318375,2.115639e-06,0,0,0,0,0,0,0,0,0,0,0,0,0,0,0,0,0,0,0,0,0,0,0,0,0,0,0,0
386,7.72,-0.00052652456,0.037923317,5.0074968338012695,0.9966716378462207,-1.9044999173787094e-05,3.520502753746084e-05,0.08152082378647811,-6.714742e-05,-0.00032197914,-2.1129677e-05,-0.0002241304,-0.00014551767,2.6985856e-06,0,0,0,0,0,0,0,0,0,0,0,0,0,0,0,0,0,0,0,0,0,0,0,0,0,0,0,0
387,7.74,-0.0005277378,0.037916966,5.0074968338012695,0.9966716342148204,-2.0877503728218653e-05,3.36575650581054e-05,0.08152086838875973,-5.4287375e-05,-0.000313095,-1.6895363e-05,-0.00016589921,-0.00012693324,4.4906546e-06,0,0,0,0,0,0,0,0,0,0,0,0,0,0,0,0,0,0,0,0,0,0,0,0,0,0,0,0
388,7.76,-0.00052870007,0.037910797,5.0074968338012695,0.996671629364192,-2.22054477459411e-05,3.246570611172372e-05,0.08152092782484092,-4.2028983e-05,-0.00030363075,-1.2651513e-05,-0.00012219319,-8.761252e-05,6.8840113e-06,0,0,0,0,0,0,0,0,0,0,0,0,0,0,0,0,0,0,0,0,0,0,0,0,0,0,0,0
389,7.78,-0.00052942184,0.03790482,5.0074968338012695,0.9966716238972485,-2.327684249497806e-05,3.166140221781553e-05,0.08152099468091603,-3.0204252e-05,-0.00029373323,-9.270739e-06,-0.00010975466,-5.8953385e-05,8.964279e-06,0,0,0,0,0,0,0,0,0,0,0,0,0,0,0,0,0,0,0,0,0,0,0,0,0,0,0,0
390,7.8,-0.0005299103,0.037899047,5.0074968338012695,0.99667161477938,-2.4379142141770988e-05,3.098530600935214e-05,0.08152110609303086,-1.869474e-05,-0.00028344223,-7.086825e-06,-0.0001246874,-6.4023356e-05,1.00083425e-05,0,0,0,0,0,0,0,0,0,0,0,0,0,0,0,0,0,0,0,0,0,0,0,0,0,0,0,0
391,7.82,-0.0005301718,0.03789349,5.0074968338012695,0.9966716044477459,-2.5663808588836056e-05,3.006611599187523e-05,0.08152123235669191,-7.51809e-06,-0.000272714,-5.6563135e-06,-0.00014532589,-0.00010285505,9.957253e-06,0,0,0,0,0,0,0,0,0,0,0,0,0,0,0,0,0,0,0,0,0,0,0,0,0,0,0,0
392,7.84,-0.0005302143,0.03788814,5.0074968338012695,0.9966715947326802,-2.7047219538942866e-05,2.8675315752220295e-05,0.08152135118599443,3.1780346e-06,-0.00026149658,-4.1018243e-06,-0.00014935249,-0.00015158212,9.401814e-06,0,0,0,0,0,0,0,0,0,0,0,0,0,0,0,0,0,0,0,0,0,0,0,0,0,0,0,0
393,7.86,-0.0005300492,0.03788303,5.0074968338012695,0.9966715850296093,-2.8307251344381314e-05,2.687880976973134e-05,0.08152146999898353,1.3210771e-05,-0.00024980187,-1.6842596e-06,-0.0001265621,-0.00018121941,9.131956e-06,0,0,0,0,0,0,0,0,0,0,0,0,0,0,0,0,0,0,0,0,0,0,0,0,0,0,0,0
394,7.88,-0.00052969117,0.037878156,5.0074968338012695,0.9966715753358015,-2.9220579143138108e-05,2.498223194864869e-05,0.08152158879522368,2.2476295e-05,-0.00023772809,1.6726743e-06,-8.417655e-05,-0.00017605166,9.712284e-06,0,0,0,0,0,0,0,0,0,0,0,0,0,0,0,0,0,0,0,0,0,0,0,0,0,0,0,0
395,7.9,-0.00052915525,0.03787352,5.0074968338012695,0.9966715650382164,-2.9708620124805707e-05,2.3320462920774417e-05,0.08152171500788363,3.1008534e-05,-0.00022542855,5.406309e-06,-4.1432348e-05,-0.0001441158,1.0962017e-05,0,0,0,0,0,0,0,0,0,0,0,0,0,0,0,0,0,0,0,0,0,0,0,0,0,0,0,0
396,7.92,-0.0005284549,0.03786913,5.0074968338012695,0.9966715559536367,-2.9874033491367637e-05,2.2046701371022423e-05,0.08152182636841383,3.8945745e-05,-0.00021304683,8.744169e-06,-1.583799e-05,-0.00010800657,1.221306e-05,0,0,0,0,0,0,0,0,0,0,0,0,0,0,0,0,0,0,0,0,0,0,0,0,0,0,0,0
397,7.94,-0.0005276004,0.037865,5.0074968338012695,0.9966715456496883,-2.9926959817206154e-05,2.1059736017425974e-05,0.08152195258411002,4.643807e-05,-0.00020066317,1.108067e-05,-1.4827246e-05,-9.260107e-05,1.2811725e-05,0,0,0,0,0,0,0,0,0,0,0,0,0,0,0,0,0,0,0,0,0,0,0,0,0,0,0,0
398,7.96,-0.00052659994,0.037861113,5.0074968338012695,0.9966715353422929,-3.0064813031716894e-05,2.006223419113006e-05,0.08152207880108675,5.355067e-05,-0.00018827965,1.2444424e-05,-3.0607694e-05,-0.000109066226,1.24973285e-05,0,0,0,0,0,0,0,0,0,0,0,0,0,0,0,0,0,0,0,0,0,0,0,0,0,0,0,0
399,7.98,-0.00052546145,0.03785746,5.0074968338012695,0.996671526250334,-3.034282403888813e-05,1.877237664548907e-05,0.08152219016157981,6.0222803e-05,-0.00017585247,1.3441012e-05,-4.4056942e-05,-0.00014527324,1.1674651e-05,0,0,0,0,0,0,0,0,0,0,0,0,0,0,0,0,0,0,0,0,0,0,0,0,0,0,0,0
400,8.0,-0.000524195,0.03785408,5.0074968338012695,0.9966715159482731,-3.0641225778347854e-05,1.7123006760163107e-05,0.08152231636361276,6.631708e-05,-0.00016335356,1.4845296e-05,-3.857941e-05,-0.0001762636,1.1047166e-05,0,0,0,0,0,0,0,0,0,0,0,0,0,0,0,0,0,0,0,0,0,0,0,0,0,0,0,0
401,8.02,-0.0005228134,0.037850935,5.0074968338012695,0.9966715062599354,-3.0761583945200936e-05,1.5288030622558905e-05,0.08152243513016884,7.171859e-05,-0.00015081845,1.7041133e-05,-1.231666e-05,-0.00018271926,1.1087776e-05,0,0,0,0,0,0,0,0,0,0,0,0,0,0,0,0,0,0,0,0,0,0,0,0,0,0,0,0
402,8.040000000000001,-0.00052133104,0.037848044,5.0074968338012695,0.9966714965769008,-3.0565931228204916e-05,1.3550888474701458e-05,0.08152255389312808,7.641097e-05,-0.00013834599,1.981871e-05,2.3450233e-05,-0.00016302629,1.1833162e-05,0,0,0,0,0,0,0,0,0,0,0,0,0,0,0,0,0,0,0,0,0,0,0,0,0,0,0,0
403,8.06,-0.00051976123,0.037845407,5.0074968338012695,0.9966714868962977,-3.0059196389237156e-05,1.2115598157662985e-05,0.08152267265969647,8.0482496e-05,-0.00012605762,2.2498536e-05,5.206049e-05,-0.0001302916,1.28470965e-05,0,0,0,0,0,0,0,0,0,0,0,0,0,0,0,0,0,0,0,0,0,0,0,0,0,0,0,0
404,8.08,-0.000518115,0.037843008,5.0074968338012695,0.9966714778215683,-2.9385555776952157e-05,1.100371283980608e-05,0.08152278400777555,8.407001e-05,-0.00011404354,2.4494102e-05,6.0423496e-05,-0.00010479508,1.34444535e-05,0,0,0,0,0,0,0,0,0,0,0,0,0,0,0,0,0,0,0,0,0,0,0,0,0,0,0,0
405,8.1,-0.00051640096,0.037840847,5.0074968338012695,0.9966714675276561,-2.8737464445090917e-05,1.0042753547716748e-05,0.08152291021283113,8.727766e-05,-0.00010232653,2.563136e-05,5.087047e-05,-0.00010150204,1.3302974e-05,0,0,0,0,0,0,0,0,0,0,0,0,0,0,0,0,0,0,0,0,0,0,0,0,0,0,0,0
406,8.120000000000001,-0.0005146264,0.037838925,5.0074968338012695,0.996671457837064,-2.821405987348878e-05,8.991211773735027e-06,0.08152302899222022,9.011988e-05,-9.087412e-05,2.6222639e-05,3.6459405e-05,-0.000119352866,1.2534008e-05,0,0,0,0,0,0,0,0,0,0,0,0,0,0,0,0,0,0,0,0,0,0,0,0,0,0,0,0
407,8.14,-0.00051279913,0.03783721,5.0074968338012695,0.996671448144682,-2.7780433638712336e-05,7.713220388080946e-06,0.08152314776758972,9.252857e-05,-7.964463e-05,2.6835376e-05,3.1210144e-05,-0.0001419476,1.1613084e-05,0,0,0,0,0,0,0,0,0,0,0,0,0,0,0,0,0,0,0,0,0,0,0,0,0,0,0,0
408,8.16,-0.00051092874,0.037835732,5.0074968338012695,0.9966714384529322,-2.7309001472628537e-05,6.261220853163953e-06,0.08152326653893884,9.441733e-05,-6.863007e-05,2.7891572e-05,4.1904357e-05,-0.00015238096,1.1069437e-05,0,0,0,0,0,0,0,0,0,0,0,0,0,0,0,0,0,0,0,0,0,0,0,0,0,0,0,0
409,8.18,-0.0005090262,0.037834466,5.0074968338012695,0.9966714281561617,-2.6662513513962814e-05,4.809033029017132e-06,0.08152339273570917,9.57494e-05,-5.7873407e-05,2.9446059e-05,6.4596934e-05,-0.00014483307,1.1107427e-05,0,0,0,0,0,0,0,0,0,0,0,0,0,0,0,0,0,0,0,0,0,0,0,0,0,0,0,0
410,8.2,-0.00050710223,0.03783341,5.0074968338012695,0.99667141907661,-2.578841012938206e-05,3.526996962428166e-06,0.08152350408523036,9.65621e-05,-4.7453126e-05,3.1157902e-05,8.799049e-05,-0.00012344467,1.1506974e-05,0,0,0,0,0,0,0,0,0,0,0,0,0,0,0,0,0,0,0,0,0,0,0,0,0,0,0,0
411,8.22,-0.00050516654,0.037832562,5.0074968338012695,0.9966714087828025,-2.4748413737724427e-05,2.4923176086264586e-06,0.08152363029335719,9.694606e-05,-3.744443e-05,3.2609874e-05,9.995626e-05,-0.00010021413,1.1986433e-05,0,0,0,0,0,0,0,0,0,0,0,0,0,0,0,0,0,0,0,0,0,0,0,0,0,0,0,0
412,8.24,-0.00050322665,0.03783191,5.0074968338012695,0.9966713990940401,-2.368124346645541e-05,1.653717209492622e-06,0.08152374908204629,9.699643e-05,-2.7881824e-05,3.34944e-05,9.664694e-05,-8.655293e-05,1.2156732e-05,0,0,0,0,0,0,0,0,0,0,0,0,0,0,0,0,0,0,0,0,0,0,0,0,0,0,0,0
413,8.26,-0.00050128857,0.037831444,5.0074968338012695,0.9966713894011003,-2.270226057011474e-05,8.730233260630788e-07,0.08152386787392717,9.67667e-05,-1.8749357e-05,3.3906865e-05,8.5137646e-05,-8.749845e-05,1.1793864e-05,0,0,0,0,0,0,0,0,0,0,0,0,0,0,0,0,0,0,0,0,0,0,0,0,0,0,0,0
414,8.28,-0.0004993579,0.037831157,5.0074968338012695,0.9966713790968305,-2.1830452128126648e-05,1.8626555170659562e-08,0.0815239940916354,9.625174e-05,-1.0006283e-05,3.404753e-05,7.5617216e-05,-9.79318e-05,1.091224e-05,0,0,0,0,0,0,0,0,0,0,0,0,0,0,0,0,0,0,0,0,0,0,0,0,0,0,0,0
415,8.3,-0.00049744075,0.037831042,5.0074968338012695,0.9966713693974824,-2.1003696454030777e-05,-9.497701696161794e-07,0.08152411288256989,9.540976e-05,-1.6225295e-06,3.4235884e-05,7.514447e-05,-0.000108055414,9.945466e-06,0,0,0,0,0,0,0,0,0,0,0,0,0,0,0,0,0,0,0,0,0,0,0,0,0,0,0,0
416,8.32,-0.000495544,0.03783109,5.0074968338012695,0.9966713596975045,-2.0120390166976534e-05,-1.9729972229271604e-06,0.0815242316738087,9.4203126e-05,6.3995603e-06,3.4734177e-05,8.603429e-05,-0.00010816953,9.279989e-06,0,0,0,0,0,0,0,0,0,0,0,0,0,0,0,0,0,0,0,0,0,0,0,0,0,0,0,0
417,8.34,-0.0004936751,0.037831295,5.0074968338012695,0.9966713499982971,-1.9099064817000638e-05,-2.916615872954519e-06,0.08152435046837829,9.2635375e-05,1.4022009e-05,3.5509038e-05,0.00010266247,-9.42801e-05,9.024541e-06,0,0,0,0,0,0,0,0,0,0,0,0,0,0,0,0,0,0,0,0,0,0,0,0,0,0,0,0
418,8.36,-0.00049184065,0.03783165,5.0074968338012695,0.996671339692593,-1.793434629428264e-05,-3.6638802255093822e-06,0.08152447669446912,9.076481e-05,2.1191729e-05,3.6279125e-05,0.000116258445,-7.334815e-05,9.031091e-06,0,0,0,0,0,0,0,0,0,0,0,0,0,0,0,0,0,0,0,0,0,0,0,0,0,0,0,0
419,8.38,-0.000490046,0.03783214,5.0074968338012695,0.9966713312088415,-1.6695170783016894e-05,-4.211156897156907e-06,0.0815245806486196,8.8676665e-05,2.7869224e-05,3.671782e-05,0.00012008945,-5.748616e-05,8.938082e-06,0,0,0,0,0,0,0,0,0,0,0,0,0,0,0,0,0,0,0,0,0,0,0,0,0,0,0,0
420,8.4,-0.00048829464,0.037832767,5.0074968338012695,0.9966713257600216,-1.5485842275321658e-05,-4.663563511110678e-06,0.0815246474767046,8.6434804e-05,3.40478e-05,3.6658214e-05,0.000111596055,-5.48452e-05,8.528054e-06,0,0,0,0,0,0,0,0,0,0,0,0,0,0,0,0,0,0,0,0,0,0,0,0,0,0,0,0
421,8.42,-0.00048658956,0.037833508,5.0074968338012695,0.9966713209149745,-1.4397151325043668e-05,-5.158520216476506e-06,0.08152470687902959,8.404931e-05,3.9757648e-05,3.6293433e-05,9.723388e-05,-6.25235e-05,7.933317e-06,0,0,0,0,0,0,0,0,0,0,0,0,0,0,0,0,0,0,0,0,0,0,0,0,0,0,0,0
422,8.44,-0.00048493387,0.037834357,5.0074968338012695,0.9966713160664005,-1.3428680919670367e-05,-5.7485492053027454e-06,0.08152476628052321,8.1486935e-05,4.5046552e-05,3.6004945e-05,8.7273285e-05,-7.052784e-05,7.259981e-06,0,0,0,0,0,0,0,0,0,0,0,0,0,0,0,0,0,0,0,0,0,0,0,0,0,0,0,0
423,8.46,-0.00048333153,0.037835307,5.0074968338012695,0.9966713112155389,-1.251137720054671e-05,-6.392537898292931e-06,0.08152482568211603,7.871189e-05,4.9948496e-05,3.5993024e-05,8.6914646e-05,-7.095169e-05,6.6298744e-06,0,0,0,0,0,0,0,0,0,0,0,0,0,0,0,0,0,0,0,0,0,0,0,0,0,0,0,0
424,8.48,-0.00048178688,0.03783635,5.0074968338012695,0.9966713063641103,-1.1553179224308979e-05,-6.980433440305714e-06,0.08152488508581507,7.572041e-05,5.4467215e-05,3.6240977e-05,9.586452e-05,-6.009447e-05,6.2303266e-06,0,0,0,0,0,0,0,0,0,0,0,0,0,0,0,0,0,0,0,0,0,0,0,0,0,0,0,0
425,8.5,-0.00048030386,0.03783748,5.0074968338012695,0.9966713015133459,-1.0493695098967052e-05,-7.413712102171943e-06,0.08152494449315707,7.255537e-05,5.8577967e-05,3.6577138e-05,0.00010822154,-4.2846816e-05,6.1111177e-06,0,0,0,0,0,0,0,0,0,0,0,0,0,0,0,0,0,0,0,0,0,0,0,0,0,0,0,0
426,8.52,-0.00047888537,0.037838686,5.0074968338012695,0.9966712972705771,-9.348537830050797e-06,-7.668974649756193e-06,0.0815249964782357,6.928748e-05,6.22464e-05,3.6705882e-05,0.000114237024,-2.7783643e-05,6.080988e-06,0,0,0,0,0,0,0,0,0,0,0,0,0,0,0,0,0,0,0,0,0,0,0,0,0,0,0,0
427,8.540000000000001,-0.00047753265,0.037839964,5.0074968338012695,0.9966712918122601,-8.212407795759971e-06,-7.81448803537062e-06,0.08152506331657054,6.59784e-05,6.545833e-05,3.641025e-05,0.000107683576,-2.1099764e-05,5.88449e-06,0,0,0,0,0,0,0,0,0,0,0,0,0,0,0,0,0,0,0,0,0,0,0,0,0,0,0,0
428,8.56,-0.0004762463,0.0378413,5.0074968338012695,0.996671287566757,-7.191998402722814e-06,-7.944778241829748e-06,0.08152511530306703,6.265281e-05,6.8239075e-05,3.5771285e-05,9.278342e-05,-2.2713668e-05,5.529482e-06,0,0,0,0,0,0,0,0,0,0,0,0,0,0,0,0,0,0,0,0,0,0,0,0,0,0,0,0
429,8.58,-0.00047502673,0.03784269,5.0074968338012695,0.9966712827114868,-6.324017918961685e-06,-8.128990293896596e-06,0.08152517471410854,5.9298865e-05,7.064204e-05,3.4994046e-05,7.758984e-05,-2.8517221e-05,5.102425e-06,0,0,0,0,0,0,0,0,0,0,0,0,0,0,0,0,0,0,0,0,0,0,0,0,0,0,0,0
430,8.6,-0.00047387474,0.037844125,5.0074968338012695,0.9966712772469463,-5.566302329256228e-06,-8.377181222398397e-06,0.08152524154996346,5.588705e-05,7.272045e-05,3.4362234e-05,7.1558046e-05,-3.2462336e-05,4.514238e-06,0,0,0,0,0,0,0,0,0,0,0,0,0,0,0,0,0,0,0,0,0,0,0,0,0,0,0,0
431,8.620000000000001,-0.00047279175,0.037845597,5.0074968338012695,0.996671272389141,-4.8040477664473985e-06,-8.627760231485009e-06,0.0815253009604599,5.2398907e-05,7.44974e-05,3.4061824e-05,7.81278e-05,-2.8549823e-05,3.9902407e-06,0,0,0,0,0,0,0,0,0,0,0,0,0,0,0,0,0,0,0,0,0,0,0,0,0,0,0,0
432,8.64,-0.0004717792,0.0378471,5.0074968338012695,0.9966712675316658,-3.946912002519061e-06,-8.79498939486778e-06,0.08152536037266397,4.8850274e-05,7.595456e-05,3.3935463e-05,9.0533715e-05,-1.782302e-05,3.5605633e-06,0,0,0,0,0,0,0,0,0,0,0,0,0,0,0,0,0,0,0,0,0,0,0,0,0,0,0,0
433,8.66,-0.00047083787,0.037848633,5.0074968338012695,0.9966712626747467,-2.981042377077661e-06,-8.833287956170356e-06,0.08152541978679106,4.5286975e-05,7.705352e-05,3.3697048e-05,0.0001004617,-5.726837e-06,3.1806655e-06,0,0,0,0,0,0,0,0,0,0,0,0,0,0,0,0,0,0,0,0,0,0,0,0,0,0,0,0
434,8.68,-0.0004699675,0.037850183,5.0074968338012695,0.996671260247499,-1.9751787372289738e-06,-8.763011413309771e-06,0.08152544949873365,4.1760628e-05,7.776468e-05,3.3232132e-05,9.873368e-05,2.3427194e-06,2.7457481e-06,0,0,0,0,0,0,0,0,0,0,0,0,0,0,0,0,0,0,0,0,0,0,0,0,0,0,0,0
435,8.700000000000001,-0.00046916702,0.037851732,5.0074968338012695,0.9966712602492392,-1.061493975438712e-06,-8.646990198170397e-06,0.081525449506863,3.830293e-05,7.809699e-05,3.2454893e-05,8.309994e-05,5.0325725e-06,2.2885604e-06,0,0,0,0,0,0,0,0,0,0,0,0,0,0,0,0,0,0,0,0,0,0,0,0,0,0,0,0
436,8.72,-0.00046843494,0.037853282,5.0074968338012695,0.9966712602501421,-3.450944871568147e-07,-8.54104543169539e-06,0.08152544951317212,3.4916797e-05,7.8107536e-05,3.159182e-05,6.1287705e-05,4.184864e-06,1.8156534e-06,0,0,0,0,0,0,0,0,0,0,0,0,0,0,0,0,0,0,0,0,0,0,0,0,0,0,0,0
437,8.74,-0.00046776998,0.03785483,5.0074968338012695,0.9966712602504838,1.7611654602581723e-07,-8.462802716035014e-06,0.08152544951769489,3.1587446e-05,7.7876284e-05,3.086941e-05,4.555615e-05,2.5546522e-06,1.2340166e-06,0,0,0,0,0,0,0,0,0,0,0,0,0,0,0,0,0,0,0,0,0,0,0,0,0,0,0,0
438,8.76,-0.00046717116,0.03785638,5.0074968338012695,0.9966712602504144,6.071206558590461e-07,-8.415552320111049e-06,0.08152544952136438,2.829845e-05,7.746319e-05,3.0402112e-05,4.3550994e-05,-1.1889638e-07,6.078402e-07,0,0,0,0,0,0,0,0,0,0,0,0,0,0,0,0,0,0,0,0,0,0,0,0,0,0,0,0
439,8.78,-0.00046663787,0.03785793,5.0074968338012695,0.9966712602499896,1.0860898042634852e-06,-8.378538256226242e-06,0.08152544952539713,2.5038986e-05,7.687854e-05,3.0161309e-05,5.4359298e-05,1.2563585e-07,1.6637279e-07,0,0,0,0,0,0,0,0,0,0,0,0,0,0,0,0,0,0,0,0,0,0,0,0,0,0,0,0
440,8.8,-0.00046616938,0.03785946,5.0074968338012695,0.9966712602492721,1.7025092859533785e-06,-8.310703599065937e-06,0.0815254495305696,2.1815129e-05,7.608585e-05,3.0008718e-05,6.963439e-05,4.038147e-06,-4.5845987e-08,0,0,0,0,0,0,0,0,0,0,0,0,0,0,0,0,0,0,0,0,0,0,0,0,0,0,0,0
441,8.82,-0.00046576487,0.037860975,5.0074968338012695,0.9966712602484267,2.4309254357506507e-06,-8.17069386400588e-06,0.08152544953659022,1.8650426e-05,7.5032774e-05,2.9722616e-05,7.534014e-05,1.2743482e-05,8.3843275e-08,0,0,0,0,0,0,0,0,0,0,0,0,0,0,0,0,0,0,0,0,0,0,0,0,0,0,0,0
442,8.84,-0.0004654227,0.037862465,5.0074968338012695,0.9966712602478888,3.137359369461504e-06,-7.936664509476448e-06,0.08152544954216168,1.5580074e-05,7.3700096e-05,2.914326e-05,6.7580324e-05,2.2117207e-05,4.4016124e-07,0,0,0,0,0,0,0,0,0,0,0,0,0,0,0,0,0,0,0,0,0,0,0,0,0,0,0,0
443,8.86,-0.00046514077,0.03786392,5.0074968338012695,0.9966712602479163,3.7169582818643843e-06,-7.634526720505367e-06,0.08152544954631366,1.2635332e-05,7.211901e-05,2.8301642e-05,5.1995485e-05,2.7757742e-05,6.864398e-07,0,0,0,0,0,0,0,0,0,0,0,0,0,0,0,0,0,0,0,0,0,0,0,0,0,0,0,0
444,8.88,-0.00046491637,0.037865344,5.0074968338012695,0.9966712602484368,4.131782950711016e-06,-7.319739466736328e-06,0.08152544954885313,9.829089e-06,7.034957e-05,2.7321743e-05,3.6329144e-05,2.7333886e-05,5.4758067e-07,0,0,0,0,0,0,0,0,0,0,0,0,0,0,0,0,0,0,0,0,0,0,0,0,0,0,0,0
445,8.9,-0.0004647468,0.037866734,5.0074968338012695,0.996671260249076,4.422982786530816e-06,-7.0408161050998515e-06,0.08152544955032393,7.1521667e-06,6.845105e-05,2.6365686e-05,2.7542303e-05,2.3111636e-05,1.5327292e-07,0,0,0,0,0,0,0,0,0,0,0,0,0,0,0,0,0,0,0,0,0,0,0,0,0,0,0,0
446,8.92,-0.0004646296,0.037868086,5.0074968338012695,0.9966712602493988,4.676947470587844e-06,-6.813598365984415e-06,0.08152544955151354,4.584079e-06,6.645635e-05,2.558129e-05,2.8438923e-05,1.7943861e-05,-4.257438e-07,0,0,0,0,0,0,0,0,0,0,0,0,0,0,0,0,0,0,0,0,0,0,0,0,0,0,0,0
