,t,px,py,pz,qw,qx,qy,qz,vx,vy,vz,omex,omey,omez,accx,accy,accz,taux,tauy,tauz,jerkx,jerky,jerkz,snapx,snapy,snapz,bomex,bomey,bomez,baccx,baccy,baccz,mot1,mot2,mot3,mot4,motdex1,motdex2,motdex3,motdex4,f1,f2,f3,f4
0,0.0,0.0,0.0,5.0,-4.371139000186241e-08,0.999999999999999,0.0,0.0,5.0,0.0,0.0,3.1415927,3.1415927,3.1415927,0,0,0,0,0,0,0,0,0,0,0,0,0,0,0,0,0,0,0,0,0,0,0,0,0,0,0,0
1,0.02,0.09999924,-7.054012e-07,4.998062610626221,-0.02824889525853499,0.9986102734631774,-0.031431740754597315,0.031489162002284354,4.9998274,-0.00015539756,-0.1920532,2.1424282,3.109424,3.135107,0,0,0,0,0,0,0,0,0,0,0,0,0,0,0,0,0,0,0,0,0,0,0,0,0,0,0,0
2,0.04,0.20000866,5.0600624e-06,4.992124080657959,-0.035888235108874386,0.9953003573535232,-0.06322122541154272,0.06397116452107132,5.001965,0.0011991032,-0.40853012,-0.92524815,3.7595143,3.050212,0,0,0,0,0,0,0,0,0,0,0,0,0,0,0,0,0,0,0,0,0,0,0,0,0,0,0,0
3,0.06,0.30012056,5.12315e-05,4.981527805328369,-0.0018405300267401638,0.9897853072332569,-0.09672026336597975,0.10472272288669458,5.0106254,0.0029599199,-0.6555419,-5.9749465,5.2774873,2.895618,0,0,0,0,0,0,0,0,0,0,0,0,0,0,0,0,0,0,0,0,0,0,0,0,0,0,0,0
4,0.08,0.400506,6.0903916e-05,4.96572732925415,0.08968972876358051,0.9742033312037367,-0.1334043714581589,0.15838843297953067,5.03001,-0.004936655,-0.9282243,-11.939459,7.7080092,2.6779616,0,0,0,0,0,0,0,0,0,0,0,0,0,0,0,0,0,0,0,0,0,0,0,0,0,0,0,0
5,0.1,0.5013927,-0.00031844556,4.944347858428955,0.2400363688205248,0.9279113724024297,-0.17112385459597448,0.228209668940455,5.0600767,-0.038312618,-1.2088021,-17.486176,10.965546,2.405058,0,0,0,0,0,0,0,0,0,0,0,0,0,0,0,0,0,0,0,0,0,0,0,0,0,0,0,0
6,0.12,0.6029357,-0.0016890046,4.917516231536865,0.42139323985532234,0.8296281970592659,-0.20158394394958484,0.30579193185916004,5.0944037,-0.104105614,-1.4695563,-19.156738,12.526643,2.1317568,0,0,0,0,0,0,0,0,0,0,0,0,0,0,0,0,0,0,0,0,0,0,0,0,0,0,0,0
7,0.14,0.70515376,-0.0046698055,4.885807037353516,0.584536209288306,0.6864971200913509,-0.2150883883681501,0.3752014250057306,5.126007,-0.19588704,-1.6941487,-18.093498,13.489052,1.8964784,0,0,0,0,0,0,0,0,0,0,0,0,0,0,0,0,0,0,0,0,0,0,0,0,0,0,0,0
8,0.16,0.80784595,-0.009284472,4.850011348724365,0.7119165344808275,0.5144237534581464,-0.21178405135328174,0.4285913734587195,5.1405463,-0.25927675,-1.8815696,-17.387844,12.217618,1.7295156,0,0,0,0,0,0,0,0,0,0,0,0,0,0,0,0,0,0,0,0,0,0,0,0,0,0,0,0
9,0.18,0.9107157,-0.015038849,4.810733318328857,0.798656575034152,0.3367868209741257,-0.21422800422637667,0.45036504591058524,5.1446824,-0.31781855,-2.0402749,-16.149343,8.458477,1.5563909,0,0,0,0,0,0,0,0,0,0,0,0,0,0,0,0,0,0,0,0,0,0,0,0,0,0,0,0
10,0.2,1.0135165,-0.022037828,4.768673419952393,0.8445548647347763,0.18232549191092545,-0.23503948980997919,0.44524255600978613,5.131433,-0.3820049,-2.1590328,-13.665316,3.7265744,1.329243,0,0,0,0,0,0,0,0,0,0,0,0,0,0,0,0,0,0,0,0,0,0,0,0,0,0,0,0
11,0.22,1.1157609,-0.030296806,4.724640846252441,0.8576660960547734,0.07047306376753787,-0.27760573155686447,0.427056755909749,5.0869346,-0.44283277,-2.2387564,-10.333301,-0.9281793,1.0743644,0,0,0,0,0,0,0,0,0,0,0,0,0,0,0,0,0,0,0,0,0,0,0,0,0,0,0,0
12,0.24,1.2165898,-0.039799448,4.679514408111572,0.8484489099295756,0.0020969635399879227,-0.3378825416434874,0.40738855903886617,4.9853578,-0.50817543,-2.2670176,-7.7074804,-4.120698,0.8828773,0,0,0,0,0,0,0,0,0,0,0,0,0,0,0,0,0,0,0,0,0,0,0,0,0,0,0,0
13,0.26,1.3148643,-0.050597906,4.633962154388428,0.8243344483666101,-0.03486579119535907,-0.40810233671104834,0.39078072702145966,4.835611,-0.57145435,-2.290675,-5.4588304,-6.286594,0.7048407,0,0,0,0,0,0,0,0,0,0,0,0,0,0,0,0,0,0,0,0,0,0,0,0,0,0,0,0
14,0.28,1.4098083,-0.06267271,4.587714672088623,0.7899738694806434,-0.04997500776846164,-0.48041673019286857,0.37768180984409894,4.6544604,-0.63704467,-2.3390064,-4.249496,-6.8765893,0.51326084,0,0,0,0,0,0,0,0,0,0,0,0,0,0,0,0,0,0,0,0,0,0,0,0,0,0,0,0
15,0.3,1.5009611,-0.07610208,4.540148735046387,0.7536793219996295,-0.06229025734070143,-0.5451154692726581,0.3618515283790549,4.459024,-0.7062993,-2.4234493,-4.7288756,-5.464112,0.29212913,0,0,0,0,0,0,0,0,0,0,0,0,0,0,0,0,0,0,0,0,0,0,0,0,0,0,0,0
16,0.32,1.5879937,-0.0909504,4.490599632263184,0.72449429037751,-0.0868468471186074,-0.5953087099725254,0.3364122295440417,4.2390175,-0.7785848,-2.5352566,-5.7329435,-3.1351378,0.10321511,0,0,0,0,0,0,0,0,0,0,0,0,0,0,0,0,0,0,0,0,0,0,0,0,0,0,0,0
17,0.34,1.6703091,-0.10720306,4.438584804534912,0.706226702875552,-0.12401238402276188,-0.6284376676261335,0.3015474600508896,3.987343,-0.8445338,-2.6697137,-6.2324934,-0.7705465,-0.012673128,0,0,0,0,0,0,0,0,0,0,0,0,0,0,0,0,0,0,0,0,0,0,0,0,0,0,0,0
18,0.36,1.7473457,-0.12458976,4.383673191070557,0.6993093825508049,-0.1672427958584592,-0.6437354894890419,0.2619176479013229,3.7140207,-0.8897256,-2.8243618,-5.796261,1.270183,-0.06290434,0,0,0,0,0,0,0,0,0,0,0,0,0,0,0,0,0,0,0,0,0,0,0,0,0,0,0,0
19,0.38,1.8188109,-0.1425928,4.3255228996276855,0.7029203544683187,-0.20813482242509043,-0.6422122745397563,0.22393361828604957,3.4317057,-0.90552056,-2.99199,-4.50003,2.70919,-0.08846458,0,0,0,0,0,0,0,0,0,0,0,0,0,0,0,0,0,0,0,0,0,0,0,0,0,0,0,0
20,0.4,1.8845669,-0.16060875,4.263976097106934,0.7146228523001708,-0.23964226189274251,-0.6281893111488407,0.19303873871232086,3.1426961,-0.89140075,-3.1622362,-2.743512,3.3272748,-0.1266233,0,0,0,0,0,0,0,0,0,0,0,0,0,0,0,0,0,0,0,0,0,0,0,0,0,0,0,0
21,0.42,1.9444703,-0.17807566,4.19907808303833,0.7308846465294576,-0.25777556407553154,-0.6079777875674637,0.17240186152598047,2.8466268,-0.8516511,-3.325859,-0.8811153,3.1902146,-0.18759042,0,0,0,0,0,0,0,0,0,0,0,0,0,0,0,0,0,0,0,0,0,0,0,0,0,0,0,0
22,0.44,1.9983963,-0.19455713,4.131030559539795,0.7486615739362812,-0.26109955165613596,-0.5870918039412183,0.16326691514590766,2.545291,-0.7944898,-3.4763365,0.9016827,2.5503397,-0.2643351,0,0,0,0,0,0,0,0,0,0,0,0,0,0,0,0,0,0,0,0,0,0,0,0,0,0,0,0
23,0.46,2.0462453,-0.2098091,4.060142517089844,0.7658915587805388,-0.249980388503318,-0.5688770878877649,0.1652234378917916,2.238712,-0.7305184,-3.6094368,2.4391036,1.7294322,-0.34367537,0,0,0,0,0,0,0,0,0,0,0,0,0,0,0,0,0,0,0,0,0,0,0,0,0,0,0,0
24,0.48,2.087897,-0.22380576,3.9867892265319824,0.7814736085892969,-0.22662183800102617,-0.5540262085600911,0.17605823425216277,1.9252926,-0.6706928,-3.7224584,3.570532,1.0467259,-0.41235554,0,0,0,0,0,0,0,0,0,0,0,0,0,0,0,0,0,0,0,0,0,0,0,0,0,0,0,0
25,0.5,2.1232188,-0.23673198,3.911386489868164,0.7951749225850814,-0.19461166156831863,-0.5411062578370747,0.19242443036939277,1.6062362,-0.6249248,-3.8143716,4.2564363,0.67774904,-0.4641658,0,0,0,0,0,0,0,0,0,0,0,0,0,0,0,0,0,0,0,0,0,0,0,0,0,0,0,0
26,0.52,2.1521451,-0.24894644,3.834350824356079,0.8073760846237896,-0.15774179608837408,-0.5278990078071353,0.21114928676321681,1.2868693,-0.6003912,-3.8859413,4.566857,0.6478457,-0.5006561,0,0,0,0,0,0,0,0,0,0,0,0,0,0,0,0,0,0,0,0,0,0,0,0,0,0,0,0
27,0.54,2.174737,-0.26091275,3.7560744285583496,0.818834520377502,-0.11936018010009153,-0.5122821206969876,0.229848220482163,0.97381395,-0.600311,-3.93871,4.588744,0.91665006,-0.5265943,0,0,0,0,0,0,0,0,0,0,0,0,0,0,0,0,0,0,0,0,0,0,0,0,0,0,0,0
28,0.56,2.191177,-0.27312073,3.676921844482422,0.8304187265572938,-0.08228463438516523,-0.49260841781137377,0.24692291150972018,0.6724215,-0.62423986,-3.9736955,4.3831496,1.4104548,-0.54658705,0,0,0,0,0,0,0,0,0,0,0,0,0,0,0,0,0,0,0,0,0,0,0,0,0,0,0,0
29,0.58,2.201736,-0.2860241,3.5972466468811035,0.8428011328955346,-0.04888146753709194,-0.4679620301582894,0.2613587397650127,0.38620803,-0.66921556,-3.990854,3.9796965,2.0288033,-0.5637447,0,0,0,0,0,0,0,0,0,0,0,0,0,0,0,0,0,0,0,0,0,0,0,0,0,0,0,0
30,0.6,2.2067428,-0.30000067,3.5174121856689453,0.8562443111813298,-0.021153036362211802,-0.4383391472076741,0.272501414028474,0.117474414,-0.7307208,-3.9894776,3.3894117,2.6596143,-0.5787297,0,0,0,0,0,0,0,0,0,0,0,0,0,0,0,0,0,0,0,0,0,0,0,0,0,0,0,0
31,0.62,2.2065623,-0.31532717,3.4377970695495605,0.8705529348053037,-0.0007202781630753496,-0.4046875518164907,0.27993759001966045,-0.13234407,-0.80325234,-3.968826,2.6327417,3.1903167,-0.58864135,0,0,0,0,0,0,0,0,0,0,0,0,0,0,0,0,0,0,0,0,0,0,0,0,0,0,0,0
32,0.64,2.2015798,-0.3321643,3.358790636062622,0.8851315442813991,0.011347279653362685,-0.3688306725617679,0.2835089479013465,-0.3627443,-0.8807683,-3.928653,1.7510701,3.5193534,-0.5879617,0,0,0,0,0,0,0,0,0,0,0,0,0,0,0,0,0,0,0,0,0,0,0,0,0,0,0,0
33,0.66,2.1921804,-0.35054988,3.2807769775390625,0.8991521897928945,0.014623213791970915,-0.33322856817259877,0.28332000028709003,-0.57419086,-0.95710236,-3.8697762,0.79316396,3.5882943,-0.57242113,0,0,0,0,0,0,0,0,0,0,0,0,0,0,0,0,0,0,0,0,0,0,0,0,0,0,0,0
34,0.68,2.1787267,-0.3704017,3.2041149139404297,0.9118317931230262,0.009253997728158422,-0.3003996075062934,0.2797091710798182,-0.7686233,-1.0265,-3.793819,-0.1724064,3.4202557,-0.54301596,0,0,0,0,0,0,0,0,0,0,0,0,0,0,0,0,0,0,0,0,0,0,0,0,0,0,0,0
35,0.7000000000000001,2.1615248,-0.3915301,3.1291298866271973,0.9226727533285045,-0.003960923549989642,-0.2720020410605938,0.2732657882148786,-0.9496313,-1.0840116,-3.7022903,-1.0312114,3.125672,-0.5067561,0,0,0,0,0,0,0,0,0,0,0,0,0,0,0,0,0,0,0,0,0,0,0,0,0,0,0,0
36,0.72,2.1408052,-0.41365388,3.0561165809631348,0.9315360200023215,-0.023389425203442865,-0.24813871283934386,0.26480324283762235,-1.1209852,-1.1254143,-3.5970109,-1.6603724,2.8373632,-0.47186434,0,0,0,0,0,0,0,0,0,0,0,0,0,0,0,0,0,0,0,0,0,0,0,0,0,0,0,0
37,0.74,2.116735,-0.43641564,2.985321044921875,0.9385577904715818,-0.046716271457282264,-0.22760555489192086,0.25519125241389584,-1.2849357,-1.1473626,-3.4810858,-1.9945694,2.633415,-0.44252467,0,0,0,0,0,0,0,0,0,0,0,0,0,0,0,0,0,0,0,0,0,0,0,0,0,0,0,0
38,0.76,2.0894544,-0.45940474,2.9169187545776367,0.9440412389699423,-0.07140799177543272,-0.208745903614714,0.24517786514849335,-1.441929,-1.1479843,-3.3583028,-2.0396872,2.525197,-0.41883886,0,0,0,0,0,0,0,0,0,0,0,0,0,0,0,0,0,0,0,0,0,0,0,0,0,0,0,0
39,0.78,2.0591092,-0.4821907,2.8510138988494873,0.9483839914271345,-0.09514743396302924,-0.19011562590555908,0.235310049512394,-1.5912087,-1.1271707,-3.2317538,-1.8460491,2.4890327,-0.3993738,0,0,0,0,0,0,0,0,0,0,0,0,0,0,0,0,0,0,0,0,0,0,0,0,0,0,0,0
40,0.8,2.025867,-0.5043567,2.7876617908477783,0.9520103228668958,-0.11610251856613199,-0.17074112353230483,0.22592923465633286,-1.7313854,-1.086317,-3.1031818,-1.4831114,2.494214,-0.38253042,0,0,0,0,0,0,0,0,0,0,0,0,0,0,0,0,0,0,0,0,0,0,0,0,0,0,0,0
41,0.8200000000000001,1.9899262,-0.5255248,2.7268965244293213,0.9552933627394214,-0.13305468403323,-0.15011987496906135,0.2171982166181364,-1.8607782,-1.0278318,-2.9731047,-1.0247679,2.5152197,-0.36675215,0,0,0,0,0,0,0,0,0,0,0,0,0,0,0,0,0,0,0,0,0,0,0,0,0,0,0,0
42,0.84,1.9515203,-0.54537135,2.6687495708465576,0.9584848621215797,-0.1454233440390049,-0.1281348679487764,0.20914175983776917,-1.977618,-0.95467573,-2.8412764,-0.54070723,2.5320601,-0.35056195,0,0,0,0,0,0,0,0,0,0,0,0,0,0,0,0,0,0,0,0,0,0,0,0,0,0,0,0
43,0.86,1.9109175,-0.5636346,2.6132607460021973,0.9616768752018784,-0.15320944896252695,-0.10498465107931662,0.20169946824001234,-2.080203,-0.87000626,-2.7072062,-0.090207845,2.526003,-0.33272862,0,0,0,0,0,0,0,0,0,0,0,0,0,0,0,0,0,0,0,0,0,0,0,0,0,0,0,0
44,0.88,1.8684179,-0.58011514,2.560478448867798,0.9648125381622936,-0.15687699842977237,-0.08114562688209952,0.19478644923713007,-2.167091,-0.77691734,-2.57056,0.28288034,2.477861,-0.3124142,0,0,0,0,0,0,0,0,0,0,0,0,0,0,0,0,0,0,0,0,0,0,0,0,0,0,0,0
45,0.9,1.8243458,-0.5946738,2.510455369949341,0.967744065816824,-0.15719732835870004,-0.05732491054090561,0.1883461644544077,-2.2373273,-0.67823595,-2.4313512,0.5536477,2.3716109,-0.28919786,0,0,0,0,0,0,0,0,0,0,0,0,0,0,0,0,0,0,0,0,0,0,0,0,0,0,0,0
46,0.92,1.7790384,-0.60722333,2.4632396697998047,0.9703133536231374,-0.15507894363366537,-0.03436228369102971,0.18237804276179714,-2.2906573,-0.576359,-2.2899075,0.7170819,2.20038,-0.2630546,0,0,0,0,0,0,0,0,0,0,0,0,0,0,0,0,0,0,0,0,0,0,0,0,0,0,0,0
47,0.9400000000000001,1.7328297,-0.6177193,2.4188711643218994,0.9724192758168267,-0.15140758944913366,-0.01308500332224111,0.17693297195587368,-2.327614,-0.47314897,-2.146686,0.78578377,1.9700803,-0.23435713,0,0,0,0,0,0,0,0,0,0,0,0,0,0,0,0,0,0,0,0,0,0,0,0,0,0,0,0
48,0.96,1.6860355,-0.62614906,2.3773820400238037,0.9740472194931423,-0.14691749980154126,0.00584265865464928,0.17208464716408517,-2.349443,-0.36991674,-2.0020707,0.78479195,1.6983914,-0.20385605,0,0,0,0,0,0,0,0,0,0,0,0,0,0,0,0,0,0,0,0,0,0,0,0,0,0,0,0
49,0.98,1.638942,-0.63252133,2.338796854019165,0.9752591903786589,-0.14211274497475926,0.022025457422913203,0.16789389066613733,-2.3578901,-0.26749703,-1.8562382,0.7445261,1.4096444,-0.17257147,0,0,0,0,0,0,0,0,0,0,0,0,0,0,0,0,0,0,0,0,0,0,0,0,0,0,0,0
50,1.0,1.5917968,-0.6368577,2.3031411170959473,0.9761609975945075,-0.13724869347251345,0.035367083117528106,0.16438270087555348,-2.3549328,-0.1663906,-1.7091358,0.69324076,1.1277554,-0.14161035,0,0,0,0,0,0,0,0,0,0,0,0,0,0,0,0,0,0,0,0,0,0,0,0,0,0,0,0
51,1.02,1.5448083,-0.6391879,2.270441770553589,0.9768666701526214,-0.13237277058575267,0.046021062482805596,0.1615271499170804,-2.3425379,-0.066922784,-1.560527,0.6509756,0.8700931,-0.11198908,0,0,0,0,0,0,0,0,0,0,0,0,0,0,0,0,0,0,0,0,0,0,0,0,0,0,0,0
52,1.04,1.4981469,-0.6395474,2.2407326698303223,0.9774736790833168,-0.12740411391101808,0.054290639683857035,0.15926683553267126,-2.3224943,0.03062483,-1.4100734,0.626993,0.64470553,-0.08452007,0,0,0,0,0,0,0,0,0,0,0,0,0,0,0,0,0,0,0,0,0,0,0,0,0,0,0,0
53,1.06,1.4519497,-0.63797784,2.2140541076660156,0.9780519780052443,-0.12222043847886417,0.060522049083625476,0.15752325007052909,-2.2963398,0.12593313,-1.2574184,0.62123924,0.45146778,-0.059764154,0,0,0,0,0,0,0,0,0,0,0,0,0,0,0,0,0,0,0,0,0,0,0,0,0,0,0,0
54,1.08,1.4063258,-0.6345277,2.19045352935791,0.9786439412058439,-0.11672152156101723,0.06502849932919388,0.15621593075152987,-2.265368,0.21861665,-1.1022565,0.62827176,0.2855746,-0.03802754,0,0,0,0,0,0,0,0,0,0,0,0,0,0,0,0,0,0,0,0,0,0,0,0,0,0,0,0
55,1.1,1.3613601,-0.6292537,2.169982671737671,0.9792695903906248,-0.11085886957814042,0.0680576466407057,0.15527246087366495,-2.230675,0.30823442,-0.94437367,0.6412677,0.14107661,-0.019391643,0,0,0,0,0,0,0,0,0,0,0,0,0,0,0,0,0,0,0,0,0,0,0,0,0,0,0,0
56,1.12,1.3171173,-0.6222219,2.152697801589966,0.9799333379063787,-0.10463602056618243,0.06979291249252412,0.15463151627513558,-2.1932178,0.3943213,-0.78365827,0.65459454,0.013078816,-0.0037665977,0,0,0,0,0,0,0,0,0,0,0,0,0,0,0,0,0,0,0,0,0,0,0,0,0,0,0,0
57,1.1400000000000001,1.273644,-0.6135075,2.1386559009552,0.9806298225638375,-0.09809438384274556,0.07037172467089736,0.15424157456331958,-2.1538594,0.4764218,-0.6200931,0.6647531,-0.1015215,0.009048037,0,0,0,0,0,0,0,0,0,0,0,0,0,0,0,0,0,0,0,0,0,0,0,0,0,0,0,0
58,1.16,1.2309704,-0.60319453,2.127913236618042,0.9813481687164775,-0.09129545541053305,0.0699060439975698,0.15405861414023284,-2.1133935,0.55411625,-0.45373854,0.67021835,-0.20424098,0.01931019,0,0,0,0,0,0,0,0,0,0,0,0,0,0,0,0,0,0,0,0,0,0,0,0,0,0,0,0
59,1.18,1.1891109,-0.5913749,2.1205241680145264,0.9820747829300938,-0.08430663041665182,0.0684978889442725,0.154043993751063,-2.072557,0.6270371,-0.28471658,0.67082304,-0.29557595,0.027295383,0,0,0,0,0,0,0,0,0,0,0,0,0,0,0,0,0,0,0,0,0,0,0,0,0,0,0,0
60,1.2,1.1480662,-0.57814723,2.1165409088134766,0.9827951533666842,-0.07719237744866293,0.06624824810699435,0.15416287816959445,-2.0320292,0.69487566,-0.113196716,0.6671096,-0.37554553,0.033270545,0,0,0,0,0,0,0,0,0,0,0,0,0,0,0,0,0,0,0,0,0,0,0,0,0,0,0,0
61,1.22,1.1078237,-0.56361574,2.116011619567871,0.9834949696182945,-0.07001033272393942,0.06326045239458482,0.15438365590380798,-1.9924266,0.7573834,0.060615998,0.6598436,-0.44404542,0.037476696,0,0,0,0,0,0,0,0,0,0,0,0,0,0,0,0,0,0,0,0,0,0,0,0,0,0,0,0
62,1.24,1.0683591,-0.547889,2.1189796924591064,0.9841608667814642,-0.0628108102742496,0.05964055290631018,0.15467771286671808,-1.9542953,0.8143704,0.23649056,0.6497307,-0.50101835,0.040119138,0,0,0,0,0,0,0,0,0,0,0,0,0,0,0,0,0,0,0,0,0,0,0,0,0,0,0,0
63,1.26,1.0296386,-0.53107893,2.125483751296997,0.9847809625767918,-0.0556380236175113,0.05549635047631817,0.1550194218737583,-1.9181061,0.86570275,0.4141779,0.6372896,-0.5464795,0.04136266,0,0,0,0,0,0,0,0,0,0,0,0,0,0,0,0,0,0,0,0,0,0,0,0,0,0,0,0
64,1.28,0.99161905,-0.51329947,2.1355574131011963,0.9853453021653895,-0.048532061627756085,0.050936568966676685,0.15538577939007145,-1.8842514,0.9113,0.59341687,0.62282217,-0.58046234,0.041330814,0,0,0,0,0,0,0,0,0,0,0,0,0,0,0,0,0,0,0,0,0,0,0,0,0,0,0,0
65,1.3,0.9542507,-0.49466565,2.1492292881011963,0.9858461509445401,-0.04153111058330145,0.04607066138638783,0.15575630863940446,-1.8530426,0.95113343,0.77393925,0.6064221,-0.6029307,0.040108293,0,0,0,0,0,0,0,0,0,0,0,0,0,0,0,0,0,0,0,0,0,0,0,0,0,0,0,0
66,1.32,0.917478,-0.47529265,2.1665220260620117,0.9862782429099879,-0.03467357126252604,0.041009513129132744,0.15611275044403372,-1.8247081,0.98522544,0.95547396,0.5879988,-0.6136989,0.03774594,0,0,0,0,0,0,0,0,0,0,0,0,0,0,0,0,0,0,0,0,0,0,0,0,0,0,0,0
67,1.34,0.88124204,-0.45529464,2.187453031539917,0.9866389550532223,-0.027999960411026138,0.035866979627192166,0.1564389157495323,-1.7993917,1.0136505,1.1377509,0.5673005,-0.61237574,0.03426662,0,0,0,0,0,0,0,0,0,0,0,0,0,0,0,0,0,0,0,0,0,0,0,0,0,0,0,0
68,1.36,0.8454817,-0.4347838,2.2120351791381836,0.9869285094597126,-0.021554829545487597,0.030761591171211557,0.15672023177468253,-1.7771509,1.0365379,1.3205044,0.54392815,-0.5983485,0.029672015,0,0,0,0,0,0,0,0,0,0,0,0,0,0,0,0,0,0,0,0,0,0,0,0,0,0,0,0
69,1.3800000000000001,0.81013554,-0.41386905,2.240274667739868,0.9871500806987422,-0.015388313109581175,0.02581844701042324,0.15694370261363705,-1.7579525,1.0540742,1.5034786,0.51736283,-0.5708163,0.023948714,0,0,0,0,0,0,0,0,0,0,0,0,0,0,0,0,0,0,0,0,0,0,0,0,0,0,0,0
70,1.4000000000000001,0.775144,-0.3926551,2.272174119949341,0.9873098462943695,-0.0095573842158436,0.02117040828639513,0.1570978600431168,-1.7416698,1.0665085,1.6864299,0.48700207,-0.528872,0.017072327,0,0,0,0,0,0,0,0,0,0,0,0,0,0,0,0,0,0,0,0,0,0,0,0,0,0,0,0
71,1.42,0.7404507,-0.37124088,2.3077304363250732,0.9874169420137618,-0.004126444239516329,0.01695849480471079,0.1571724038630457,-1.7280787,1.0741585,1.8691285,0.45221835,-0.47161868,0.009009085,0,0,0,0,0,0,0,0,0,0,0,0,0,0,0,0,0,0,0,0,0,0,0,0,0,0,0,0
72,1.44,0.70600486,-0.34971833,2.3469362258911133,0.9874830872190762,0.0008329634145876775,0.013331065723709078,0.1571583319932552,-1.7168534,1.0774139,2.0513592,0.41243306,-0.39830366,-0.0002859678,0,0,0,0,0,0,0,0,0,0,0,0,0,0,0,0,0,0,0,0,0,0,0,0,0,0,0,0
73,1.46,0.6717634,-0.32817078,2.389780282974243,0.987521938363446,0.005243377192505326,0.010441883804865448,0.157047430125822,-1.7075638,1.0767415,2.2329166,0.36719653,-0.30845076,-0.010874146,0,0,0,0,0,0,0,0,0,0,0,0,0,0,0,0,0,0,0,0,0,0,0,0,0,0,0,0
74,1.48,0.63769287,-0.3066714,2.4362471103668213,0.9875479736517587,0.009023634597252196,0.008446964676986387,0.1568318288572388,-1.6996753,1.0726887,2.4135964,0.31626934,-0.20198967,-0.022841921,0,0,0,0,0,0,0,0,0,0,0,0,0,0,0,0,0,0,0,0,0,0,0,0,0,0,0,0
75,1.5,0.6037713,-0.28528172,2.486316442489624,0.9875749144790887,0.012092191501104854,0.007500344568835662,0.15650339302286678,-1.6925511,1.0658823,2.5931811,0.2597314,-0.079395644,-0.036313023,0,0,0,0,0,0,0,0,0,0,0,0,0,0,0,0,0,0,0,0,0,0,0,0,0,0,0,0
76,1.52,0.56999075,-0.2640499,2.5399646759033203,0.987613758992881,0.01437202223360395,0.007748420817196526,0.1560527795321445,-1.6854572,1.0570264,2.7714157,0.19815546,0.058111455,-0.051462345,0,0,0,0,0,0,0,0,0,0,0,0,0,0,0,0,0,0,0,0,0,0,0,0,0,0,0,0
77,1.54,0.5363583,-0.2430093,2.5971615314483643,0.9876705772931348,0.015798161307335752,0.009322091409667553,0.15546815577636208,-1.6775743,1.046893,2.9479706,0.13290593,0.20823324,-0.06853124,0,0,0,0,0,0,0,0,0,0,0,0,0,0,0,0,0,0,0,0,0,0,0,0,0,0,0,0
78,1.56,0.5028989,-0.22217725,2.6578686237335205,0.9877443664322468,0.016329866939860684,0.012325062683797582,0.1547336254888581,-1.6680175,1.0363038,3.1223867,0.066657774,0.36701554,-0.08784294,0,0,0,0,0,0,0,0,0,0,0,0,0,0,0,0,0,0,0,0,0,0,0,0,0,0,0,0
79,1.58,0.46965504,-0.20155452,2.7220373153686523,0.9878255549336632,0.015970351798417107,0.01681573862837264,0.1538273441811222,-1.6558698,1.0260988,3.29399,0.0041853283,0.5279248,-0.10981561,0,0,0,0,0,0,0,0,0,0,0,0,0,0,0,0,0,0,0,0,0,0,0,0,0,0,0,0
80,1.6,0.43668756,-0.18112525,2.7896013259887695,0.9878962925776453,0.014796928186912733,0.02277927186711448,0.15271892744770912,-1.6402377,1.0170827,3.4617631,-0.04667052,0.68053645,-0.13496023,0,0,0,0,0,0,0,0,0,0,0,0,0,0,0,0,0,0,0,0,0,0,0,0,0,0,0,0
81,1.62,0.40407422,-0.16085857,2.8604698181152344,0.987934127624143,0.013001455674945091,0.030086986055838476,0.15136675624433454,-1.6203418,1.0099356,3.6241653,-0.074408606,0.8091437,-0.1638231,0,0,0,0,0,0,0,0,0,0,0,0,0,0,0,0,0,0,0,0,0,0,0,0,0,0,0,0
82,1.6400000000000001,0.371906,-0.14071223,2.9345145225524902,0.9879208459546992,0.010930246185772177,0.03844561874254325,0.14971595187545378,-1.595658,1.00509,3.7789078,-0.06511136,0.89242995,-0.19675969,0,0,0,0,0,0,0,0,0,0,0,0,0,0,0,0,0,0,0,0,0,0,0,0,0,0,0,0
83,1.6600000000000001,0.34028053,-0.12063911,3.0115506649017334,0.987855920589542,0.009090141186541174,0.047353639872887925,0.14770132795674576,-1.5661045,1.0025855,3.9227498,-0.008035912,0.906692,-0.23332663,0,0,0,0,0,0,0,0,0,0,0,0,0,0,0,0,0,0,0,0,0,0,0,0,0,0,0,0
84,1.68,0.30929053,-0.10059604,3.0913186073303223,0.9877679471591975,0.008062766072749979,0.05610791012633434,0.14526312949064604,-1.5322483,1.001969,4.0514164,0.0933286,0.8357817,-0.2711217,0,0,0,0,0,0,0,0,0,0,0,0,0,0,0,0,0,0,0,0,0,0,0,0,0,0,0,0
85,1.7,0.27901006,-0.080553584,3.1734652519226074,0.9877100669290128,0.008289756948380612,0.06392750423681841,0.14238461229667188,-1.4954307,1.0023566,4.1597075,0.21174958,0.6877286,-0.30442542,0,0,0,0,0,0,0,0,0,0,0,0,0,0,0,0,0,0,0,0,0,0,0,0,0,0,0,0
86,1.72,0.24947879,-0.06050194,3.2575249671936035,0.9877290406800278,0.009820975501428759,0.07024001365019429,0.13914464100328428,-1.4576901,1.002733,4.241765,0.30569908,0.5091835,-0.32392228,0,0,0,0,0,0,0,0,0,0,0,0,0,0,0,0,0,0,0,0,0,0,0,0,0,0,0,0
87,1.74,0.22069174,-0.040449314,3.342912435531616,0.9878198393066852,0.012275382572017171,0.07505004466646135,0.1357526090002975,-1.4213738,1.0023763,4.291654,0.35273004,0.37708136,-0.31907442,0,0,0,0,0,0,0,0,0,0,0,0,0,0,0,0,0,0,0,0,0,0,0,0,0,0,0,0
88,1.76,0.1925994,-0.020413065,3.4289345741271973,0.9879059167944837,0.015159746508310873,0.07905982006140864,0.1325202871265833,-1.3884885,1.0011067,4.304636,0.3718956,0.34492117,-0.283399,0,0,0,0,0,0,0,0,0,0,0,0,0,0,0,0,0,0,0,0,0,0,0,0,0,0,0,0
89,1.78,0.16512,-0.00040955283,3.514828681945801,0.9878857134712684,0.01829755819551529,0.08311851183275208,0.12976258888506115,-1.3602037,0.99915624,4.278716,0.40364012,0.36931923,-0.21978861,0,0,0,0,0,0,0,0,0,0,0,0,0,0,0,0,0,0,0,0,0,0,0,0,0,0,0,0
90,1.8,0.13815656,0.019550856,3.5998244285583496,0.9877257009706859,0.021992143238764264,0.08725273194044862,0.12767633315012306,-1.3369246,0.9968401,4.215219,0.47651646,0.32919398,-0.14030969,0,0,0,0,0,0,0,0,0,0,0,0,0,0,0,0,0,0,0,0,0,0,0,0,0,0,0,0
91,1.82,0.11160943,0.039462954,3.6832118034362793,0.9874862489729339,0.02679148674551785,0.09057950998631965,0.12628727844865248,-1.3185284,0.9943438,4.1187553,0.5863448,0.19032772,-0.059051983,0,0,0,0,0,0,0,0,0,0,0,0,0,0,0,0,0,0,0,0,0,0,0,0,0,0,0,0
92,1.84,0.085386485,0.059323918,3.7643990516662598,0.9871994994446528,0.03292256430887695,0.09271963128579831,0.12552419300589254,-1.3043723,0.99173445,3.9964201,0.68917334,0.09745045,0.013598073,0,0,0,0,0,0,0,0,0,0,0,0,0,0,0,0,0,0,0,0,0,0,0,0,0,0,0,0
93,1.86,0.059411556,0.07913228,3.842938184738159,0.9867707485296467,0.03985119454388154,0.09481187719183834,0.1253239006854881,-1.293583,0.9891065,3.8548381,0.724685,0.17964168,0.06900436,0,0,0,0,0,0,0,0,0,0,0,0,0,0,0,0,0,0,0,0,0,0,0,0,0,0,0,0
94,1.8800000000000001,0.033623908,0.09888986,3.9184858798980713,0.9860977886332136,0.0466515188776713,0.09828864327496946,0.12559510198354892,-1.2855806,0.9867059,3.697705,0.69801265,0.35471538,0.097531974,0,0,0,0,0,0,0,0,0,0,0,0,0,0,0,0,0,0,0,0,0,0,0,0,0,0,0,0
95,1.9000000000000001,0.00796356,0.11860673,3.990718364715576,0.9852335163763805,0.05321365756187672,0.10297414303099775,0.12601408938905,-1.2809451,0.98512,3.5230727,0.7222844,0.3977954,0.08603965,0,0,0,0,0,0,0,0,0,0,0,0,0,0,0,0,0,0,0,0,0,0,0,0,0,0,0,0
96,1.92,-0.01762265,0.13829689,4.059362888336182,0.98432335382188,0.05993700717814078,0.10768290656660698,0.12617242933676429,-1.2777071,0.98388904,3.341109,0.71975386,0.3779234,0.05552446,0,0,0,0,0,0,0,0,0,0,0,0,0,0,0,0,0,0,0,0,0,0,0,0,0,0,0,0
97,1.94,-0.04314624,0.15796219,4.1243510246276855,0.9834187708584204,0.06655303336047613,0.11217722779298715,0.12599398572357806,-1.2747339,0.98265857,3.1573446,0.710895,0.36404207,0.019741343,0,0,0,0,0,0,0,0,0,0,0,0,0,0,0,0,0,0,0,0,0,0,0,0,0,0,0,0
98,1.96,-0.06861572,0.17760427,4.185636520385742,0.9824752022942133,0.07294378592149843,0.11696364602759465,0.1254638851634797,-1.2723016,0.9815777,2.9708467,0.6864884,0.45295185,-0.021563549,0,0,0,0,0,0,0,0,0,0,0,0,0,0,0,0,0,0,0,0,0,0,0,0,0,0,0,0
99,1.98,-0.09404273,0.197227,4.2431640625,0.9813694773902762,0.07874644008399302,0.12318765826980005,0.12465050289043064,-1.2705098,0.9807419,2.7814407,0.64323163,0.65214527,-0.06657342,0,0,0,0,0,0,0,0,0,0,0,0,0,0,0,0,0,0,0,0,0,0,0,0,0,0,0,0
100,2.0,-0.11944256,0.21683691,4.296868801116943,0.9800123640994187,0.0838205660886821,0.13143412760168938,0.12359186467734819,-1.269651,0.9803342,2.5883176,0.61089194,0.84547234,-0.11280393,0,0,0,0,0,0,0,0,0,0,0,0,0,0,0,0,0,0,0,0,0,0,0,0,0,0,0,0
101,2.02,-0.14483766,0.23644459,4.34666633605957,0.9784497371056362,0.08853417448220785,0.14094319293265858,0.12219995201559009,-1.2700812,0.9805359,2.3907208,0.6194686,0.88835394,-0.15632898,0,0,0,0,0,0,0,0,0,0,0,0,0,0,0,0,0,0,0,0,0,0,0,0,0,0,0,0
102,2.04,-0.17025116,0.25606084,4.392481803894043,0.9768811544496765,0.09346903277655405,0.14996365142047036,0.12032312016201374,-1.2713236,0.98111355,2.1906972,0.6480802,0.7410974,-0.19118825,0,0,0,0,0,0,0,0,0,0,0,0,0,0,0,0,0,0,0,0,0,0,0,0,0,0,0,0
103,2.06,-0.19567311,0.27568102,4.434346675872803,0.9754808673902472,0.09853249250540125,0.1574725581696594,0.11802888925914355,-1.2704159,0.98068917,1.9970944,0.60298526,0.6203768,-0.20941731,0,0,0,0,0,0,0,0,0,0,0,0,0,0,0,0,0,0,0,0,0,0,0,0,0,0,0,0
104,2.08,-0.22105601,0.2952828,4.4723968505859375,0.9742087701582327,0.10305897683291693,0.1641161935027541,0.11559409358225291,-1.2675267,0.9793264,1.8088479,0.5405207,0.5730236,-0.22370736,0,0,0,0,0,0,0,0,0,0,0,0,0,0,0,0,0,0,0,0,0,0,0,0,0,0,0,0
105,2.1,-0.24634874,0.3148419,4.506765365600586,0.9729489366323495,0.10696077807987198,0.17067229334568484,0.11314029760723276,-1.2609648,0.9762076,1.6299405,0.47702163,0.6223444,-0.2306291,0,0,0,0,0,0,0,0,0,0,0,0,0,0,0,0,0,0,0,0,0,0,0,0,0,0,0,0
106,2.12,-0.27145693,0.33431333,4.537684440612793,0.9715428252109872,0.11017086441476899,0.17797570952882064,0.1108673361854988,-1.2488954,0.9704835,1.4642091,0.42484972,0.72776896,-0.22459231,0,0,0,0,0,0,0,0,0,0,0,0,0,0,0,0,0,0,0,0,0,0,0,0,0,0,0,0
107,2.14,-0.29626334,0.35364255,4.565423011779785,0.969941233063469,0.11298440089128624,0.186010149744908,0.10885198092102494,-1.2307634,0.9619989,1.3117092,0.41583258,0.7627516,-0.20680556,0,0,0,0,0,0,0,0,0,0,0,0,0,0,0,0,0,0,0,0,0,0,0,0,0,0,0,0
108,2.16,-0.32064423,0.37277436,4.590238571166992,0.968310324281118,0.11600423551350388,0.19358833678790655,0.10696583142861935,-1.2062892,0.9507244,1.1718012,0.44647557,0.62858653,-0.18128476,0,0,0,0,0,0,0,0,0,0,0,0,0,0,0,0,0,0,0,0,0,0,0,0,0,0,0,0
109,2.18,-0.34446555,0.39164922,4.61238956451416,0.966972950875804,0.11958485555323232,0.19907384507773035,0.10503513127911146,-1.1746299,0.93618673,1.0456051,0.46338543,0.345497,-0.15176128,0,0,0,0,0,0,0,0,0,0,0,0,0,0,0,0,0,0,0,0,0,0,0,0,0,0,0,0
110,2.2,-0.36757177,0.41019326,4.632174968719482,0.9661968457648176,0.12342677202007045,0.20151899076638316,0.10305136361698945,-1.134596,0.91748494,0.935749,0.41618347,0.035937015,-0.12050015,0,0,0,0,0,0,0,0,0,0,0,0,0,0,0,0,0,0,0,0,0,0,0,0,0,0,0,0
111,2.22,-0.38978818,0.42831478,4.64994478225708,0.9659958050047749,0.1268694247162904,0.20128418837420436,0.1011974767268056,-1.0856324,0.89384437,0.8442447,0.31937528,-0.1645579,-0.088789105,0,0,0,0,0,0,0,0,0,0,0,0,0,0,0,0,0,0,0,0,0,0,0,0,0,0,0,0
112,2.24,-0.41094223,0.44591334,4.666064262390137,0.9661004534122729,0.129593433143131,0.19979631692588312,0.09968393925617855,-1.0285995,0.865252,0.7703613,0.24397415,-0.19163544,-0.05869496,0,0,0,0,0,0,0,0,0,0,0,0,0,0,0,0,0,0,0,0,0,0,0,0,0,0,0,0
113,2.2600000000000002,-0.43089226,0.46289766,4.680850505828857,0.9661333290174059,0.13193540981583407,0.19865068882529138,0.0985765795090809,-0.96561843,0.83261144,0.710061,0.24265969,-0.09236536,-0.033800416,0,0,0,0,0,0,0,0,0,0,0,0,0,0,0,0,0,0,0,0,0,0,0,0,0,0,0,0
114,2.2800000000000002,-0.44954482,0.47920012,4.694516658782959,0.9658860600181742,0.1344965223742817,0.1985425401355947,0.09775307815254809,-0.8992581,0.79729706,0.6573317,0.29409838,-0.0023928552,-0.01743068,0,0,0,0,0,0,0,0,0,0,0,0,0,0,0,0,0,0,0,0,0,0,0,0,0,0,0,0
115,2.3000000000000003,-0.4668542,0.49477926,4.707159519195557,0.9655016832008797,0.1374978722605863,0.19873119966699906,0.09698837630868408,-0.8315757,0.7604085,0.607033,0.3204671,-0.054352175,-0.009943318,0,0,0,0,0,0,0,0,0,0,0,0,0,0,0,0,0,0,0,0,0,0,0,0,0,0,0,0
116,2.32,-0.48280376,0.50960714,4.718806743621826,0.9653935327253937,0.1405043349167377,0.19758077829157766,0.0961025228143567,-0.76331055,0.7221464,0.55783665,0.25966248,-0.26958176,-0.008303696,0,0,0,0,0,0,0,0,0,0,0,0,0,0,0,0,0,0,0,0,0,0,0,0,0,0,0,0
117,2.34,-0.49737886,0.52365106,4.729499816894531,0.9659115797819389,0.14279993267728303,0.19387439233440665,0.09505640045513569,-0.6940129,0.68187296,0.5123667,0.13238427,-0.5390686,-0.008447588,0,0,0,0,0,0,0,0,0,0,0,0,0,0,0,0,0,0,0,0,0,0,0,0,0,0,0,0
118,2.36,-0.5105538,0.53686345,4.739350318908691,0.967028133007292,0.14413093235691488,0.1877848338494192,0.09391336692134836,-0.6232591,0.63890094,0.47403198,0.03295187,-0.7149063,-0.0075236065,0,0,0,0,0,0,0,0,0,0,0,0,0,0,0,0,0,0,0,0,0,0,0,0,0,0,0,0
119,2.38,-0.5223029,0.54918855,4.748515605926514,0.9683450756469589,0.14505788562901747,0.18073236601818757,0.09274608434102233,-0.5515906,0.59318364,0.4437678,0.03982823,-0.7208755,-0.0045392523,0,0,0,0,0,0,0,0,0,0,0,0,0,0,0,0,0,0,0,0,0,0,0,0,0,0,0,0
120,2.4,-0.53262025,0.5605767,4.757139205932617,0.9694168484215453,0.14645126767077912,0.17433026658657208,0.09160763257455964,-0.4803053,0.5453303,0.4192151,0.12992822,-0.60315776,0.00030673062,0,0,0,0,0,0,0,0,0,0,0,0,0,0,0,0,0,0,0,0,0,0,0,0,0,0,0,0
121,2.42,-0.5415279,0.5709943,4.765291690826416,0.9701026984602478,0.14855602810765628,0.1692082495789484,0.09055622136248387,-0.4108346,0.49629918,0.39597577,0.18698849,-0.4938921,0.0067625786,0,0,0,0,0,0,0,0,0,0,0,0,0,0,0,0,0,0,0,0,0,0,0,0,0,0,0,0
122,2.44,-0.54907304,0.58042717,4.7729597091674805,0.9706676291977285,0.1505733263766626,0.16460046998617753,0.08965886622001057,-0.34417734,0.4469945,0.37034342,0.108816326,-0.50685465,0.014327479,0,0,0,0,0,0,0,0,0,0,0,0,0,0,0,0,0,0,0,0,0,0,0,0,0,0,0,0
123,2.46,-0.55531424,0.5888743,4.780087947845459,0.9715398595864746,0.15129406811113766,0.15908956395289375,0.08894333494058823,-0.28040016,0.39773676,0.34218785,-0.083361104,-0.64203984,0.020835292,0,0,0,0,0,0,0,0,0,0,0,0,0,0,0,0,0,0,0,0,0,0,0,0,0,0,0,0
124,2.48,-0.5603038,0.5963345,4.786653995513916,0.9729061956827917,0.1502610574732638,0.151888840936282,0.08834550926949783,-0.21889776,0.3482246,0.31467843,-0.25401205,-0.79467636,0.0231826,0,0,0,0,0,0,0,0,0,0,0,0,0,0,0,0,0,0,0,0,0,0,0,0,0,0,0,0
125,2.5,-0.56408244,0.6027988,4.792703151702881,0.9745373023522622,0.14830605695559454,0.14347931097770003,0.08772711733337536,-0.15926915,0.2980909,0.29100794,-0.27552986,-0.85498095,0.020153604,0,0,0,0,0,0,0,0,0,0,0,0,0,0,0,0,0,0,0,0,0,0,0,0,0,0,0,0
126,2.52,-0.56668836,0.6082533,4.798325538635254,0.9760107687593296,0.14690417726577462,0.135121901427258,0.08697248830734078,-0.10167568,0.24724251,0.27187726,-0.14664789,-0.7963652,0.013989997,0,0,0,0,0,0,0,0,0,0,0,0,0,0,0,0,0,0,0,0,0,0,0,0,0,0,0,0
127,2.54,-0.5681668,0.6126852,4.803594589233398,0.9770814115448445,0.1468685763421548,0.1277903205484509,0.0860881552298988,-0.04660476,0.19587357,0.2552147,-0.004582055,-0.68737906,0.009476479,0,0,0,0,0,0,0,0,0,0,0,0,0,0,0,0,0,0,0,0,0,0,0,0,0,0,0,0
128,2.56,-0.5685731,0.61608803,4.808528423309326,0.9778734532487972,0.14750953017657698,0.12142061830661091,0.08521432619224727,0.005458183,0.14443852,0.23778751,-0.013498619,-0.6279631,0.010719938,0,0,0,0,0,0,0,0,0,0,0,0,0,0,0,0,0,0,0,0,0,0,0,0,0,0,0,0
129,2.58,-0.56796926,0.6184651,4.81309175491333,0.9787610558240915,0.14709323187667786,0.11509124769098228,0.08452444287374333,0.054422896,0.0933562,0.21826458,-0.21333635,-0.6592766,0.01681282,0,0,0,0,0,0,0,0,0,0,0,0,0,0,0,0,0,0,0,0,0,0,0,0,0,0,0,0
130,2.6,-0.5664143,0.61982524,4.817258834838867,0.9800243757696286,0.14431675872101246,0.10795703951552064,0.08408432474994926,0.100646004,0.042752452,0.19859634,-0.4761701,-0.734384,0.021452589,0,0,0,0,0,0,0,0,0,0,0,0,0,0,0,0,0,0,0,0,0,0,0,0,0,0,0,0
131,2.62,-0.5639594,0.6201786,4.821056365966797,0.9815946535011992,0.13945861283845207,0.10000968638385654,0.08379316292179181,0.14445497,-0.007310746,0.1818688,-0.6187904,-0.77312565,0.018291038,0,0,0,0,0,0,0,0,0,0,0,0,0,0,0,0,0,0,0,0,0,0,0,0,0,0,0,0
132,2.64,-0.56065214,0.6195375,4.8245649337768555,0.9831411984774597,0.13415932298642885,0.09202497028963594,0.08346295438887127,0.18587853,-0.056675322,0.16968942,-0.55887175,-0.73201364,0.0063206977,0,0,0,0,0,0,0,0,0,0,0,0,0,0,0,0,0,0,0,0,0,0,0,0,0,0,0,0
133,2.66,-0.55654114,0.6179172,4.827869892120361,0.9843757576897755,0.13005968941786877,0.08488743834946554,0.0829636527141467,0.22481394,-0.10523513,0.16135944,-0.3811737,-0.63301855,-0.009461275,0,0,0,0,0,0,0,0,0,0,0,0,0,0,0,0,0,0,0,0,0,0,0,0,0,0,0,0
134,2.68,-0.55167717,0.61533433,4.831026554107666,0.985271125896718,0.12744319990763067,0.07889277184487416,0.08231020484818284,0.2611635,-0.15289226,0.15433411,-0.2680023,-0.54171807,-0.021626163,0,0,0,0,0,0,0,0,0,0,0,0,0,0,0,0,0,0,0,0,0,0,0,0,0,0,0,0
135,2.7,-0.5461122,0.61180896,4.8340349197387695,0.9860542563328392,0.12498983476010551,0.07355666259330154,0.08163309477576053,0.2949184,-0.1994438,0.14621922,-0.34773555,-0.51064223,-0.025848044,0,0,0,0,0,0,0,0,0,0,0,0,0,0,0,0,0,0,0,0,0,0,0,0,0,0,0,0
136,2.72,-0.5398965,0.6073652,4.836869716644287,0.9870049452881127,0.12088539893067929,0.06809121615141137,0.08106506390056094,0.3262527,-0.24468923,0.13725482,-0.58428353,-0.53536326,-0.024532653,0,0,0,0,0,0,0,0,0,0,0,0,0,0,0,0,0,0,0,0,0,0,0,0,0,0,0,0
137,2.74,-0.53307664,0.6020315,4.839537620544434,0.9882133275805189,0.11435630622832359,0.062090654347215175,0.08063377121768978,0.35537136,-0.28839347,0.12999207,-0.81138915,-0.56773883,-0.024331672,0,0,0,0,0,0,0,0,0,0,0,0,0,0,0,0,0,0,0,0,0,0,0,0,0,0,0,0
138,2.7600000000000002,-0.5256963,0.5958424,4.842097282409668,0.9895183283455258,0.10629879813708235,0.05580452699122701,0.08024897600700795,0.38229558,-0.33016378,0.12667611,-0.8740314,-0.5611731,-0.030040165,0,0,0,0,0,0,0,0,0,0,0,0,0,0,0,0,0,0,0,0,0,0,0,0,0,0,0,0
139,2.7800000000000002,-0.5178,0.5888403,4.844633102416992,0.9906747952731618,0.09853941881697474,0.049873540689694656,0.0797876111233124,0.40694508,-0.3696695,0.12760325,-0.74948496,-0.5028835,-0.041053392,0,0,0,0,0,0,0,0,0,0,0,0,0,0,0,0,0,0,0,0,0,0,0,0,0,0,0,0
140,2.8000000000000003,-0.5094337,0.58107114,4.847217559814453,0.9915546091988258,0.09240484535754584,0.04482619360106152,0.0791922590803681,0.42932737,-0.40688494,0.13106637,-0.5577611,-0.41790676,-0.05245943,0,0,0,0,0,0,0,0,0,0,0,0,0,0,0,0,0,0,0,0,0,0,0,0,0,0,0,0
141,2.82,-0.5006414,0.57257944,4.84987211227417,0.9922106975463573,0.08773635080243475,0.040708207049074234,0.07850545395889981,0.44956353,-0.44194308,0.13421948,-0.46462154,-0.34836808,-0.058785293,0,0,0,0,0,0,0,0,0,0,0,0,0,0,0,0,0,0,0,0,0,0,0,0,0,0,0,0
142,2.84,-0.49146438,0.5634076,4.852570056915283,0.9928064845742787,0.08308168911220351,0.03708794167733617,0.07782802646646006,0.4678375,-0.4748865,0.1351453,-0.550601,-0.32133073,-0.058145437,0,0,0,0,0,0,0,0,0,0,0,0,0,0,0,0,0,0,0,0,0,0,0,0,0,0,0,0
143,2.86,-0.48193982,0.55359894,4.8552680015563965,0.9934804143270958,0.07690744944950033,0.03340967870747454,0.0772379695246949,0.48432985,-0.5055761,0.13454162,-0.74957615,-0.3328723,-0.05371095,0,0,0,0,0,0,0,0,0,0,0,0,0,0,0,0,0,0,0,0,0,0,0,0,0,0,0,0
144,2.88,-0.47210255,0.5432018,4.8579583168029785,0.9942390435114726,0.06883474603629773,0.02937075591699647,0.07673239728025304,0.4991098,-0.5336763,0.13478859,-0.90838236,-0.35808256,-0.05072412,0,0,0,0,0,0,0,0,0,0,0,0,0,0,0,0,0,0,0,0,0,0,0,0,0,0,0,0
145,2.9,-0.46198738,0.532272,4.860678195953369,0.9949722682143382,0.05991040519198965,0.02506374001228818,0.07624131275590262,0.5121046,-0.55879945,0.1376875,-0.90967184,-0.368426,-0.05211458,0,0,0,0,0,0,0,0,0,0,0,0,0,0,0,0,0,0,0,0,0,0,0,0,0,0,0,0
146,2.92,-0.451631,0.5208708,4.863483905792236,0.9955672103374164,0.051775606378452715,0.02086942680363407,0.07569467160907528,0.523228,-0.5808304,0.1432543,-0.7568893,-0.34578097,-0.056708515,0,0,0,0,0,0,0,0,0,0,0,0,0,0,0,0,0,0,0,0,0,0,0,0,0,0,0,0
147,2.94,-0.44107062,0.5090577,4.866413593292236,0.9959930666569601,0.045442366638454024,0.01720541242974047,0.07507846741032281,0.5325281,-0.6000696,0.14975175,-0.5643607,-0.2916977,-0.060630195,0,0,0,0,0,0,0,0,0,0,0,0,0,0,0,0,0,0,0,0,0,0,0,0,0,0,0,0
148,2.96,-0.43034077,0.49688366,4.869461536407471,0.996296673257554,0.040595873797591206,0.014270108424182346,0.07443976015613418,0.540216,-0.61698776,0.15457936,-0.46863168,-0.22702934,-0.060279425,0,0,0,0,0,0,0,0,0,0,0,0,0,0,0,0,0,0,0,0,0,0,0,0,0,0,0,0
149,2.98,-0.4194709,0.4843919,4.872573375701904,0.9965516383005558,0.03590460603463794,0.011928126244021321,0.07384721572464628,0.54657584,-0.63185805,0.15608151,-0.5260518,-0.17978674,-0.055171013,0,0,0,0,0,0,0,0,0,0,0,0,0,0,0,0,0,0,0,0,0,0,0,0,0,0,0,0
150,3.0,-0.4084852,0.47162366,4.875686168670654,0.99680513481131,0.03008315601158685,0.009796038140953332,0.07333869766317043,0.551825,-0.6445877,0.1548566,-0.673905,-0.17037144,-0.04840354,0,0,0,0,0,0,0,0,0,0,0,0,0,0,0,0,0,0,0,0,0,0,0,0,0,0,0,0
151,3.02,-0.39740503,0.45862514,4.8787641525268555,0.9970493820945668,0.02287153779572515,0.007451825965578213,0.07289645199514184,0.5560113,-0.65482455,0.1530465,-0.78443605,-0.19998237,-0.043976426,0,0,0,0,0,0,0,0,0,0,0,0,0,0,0,0,0,0,0,0,0,0,0,0,0,0,0,0
152,3.04,-0.38625267,0.4454496,4.881817817687988,0.9972440247159818,0.015189586037584014,0.004671836237889031,0.07246934241762726,0.5590155,-0.6622575,0.15256518,-0.7635708,-0.2449585,-0.04354651,0,0,0,0,0,0,0,0,0,0,0,0,0,0,0,0,0,0,0,0,0,0,0,0,0,0,0,0
153,3.06,-0.3750535,0.4321535,4.884880065917969,0.9973665604907468,0.008409899003044702,0.0015866435591338787,0.07201874877996957,0.56067365,-0.6669306,0.15392755,-0.61656034,-0.2676457,-0.0454263,0,0,0,0,0,0,0,0,0,0,0,0,0,0,0,0,0,0,0,0,0,0,0,0,0,0,0,0
154,3.08,-0.36383513,0.4187878,4.887979507446289,0.9974307108083391,0.00335248455260777,-0.0013748232893106534,0.07154612389653926,0.5609487,-0.66931754,0.15603895,-0.43723777,-0.24253748,-0.046070553,0,0,0,0,0,0,0,0,0,0,0,0,0,0,0,0,0,0,0,0,0,0,0,0,0,0,0,0
155,3.1,-0.35262367,0.4053918,4.891111850738525,0.9974630410892857,-0.00025899118059486065,-0.0037576969707586515,0.07108652683848153,0.56002355,-0.6700542,0.15684412,-0.33593616,-0.17620626,-0.042728618,0,0,0,0,0,0,0,0,0,0,0,0,0,0,0,0,0,0,0,0,0,0,0,0,0,0,0,0
156,3.12,-0.34144008,0.391994,4.8942341804504395,0.9974782686818409,-0.0035262128941344812,-0.005386633699932205,0.07067993709310387,0.55822515,-0.66953605,0.1547641,-0.3595761,-0.10407302,-0.035657734,0,0,0,0,0,0,0,0,0,0,0,0,0,0,0,0,0,0,0,0,0,0,0,0,0,0,0,0
157,3.14,-0.3302986,0.37861907,4.897284507751465,0.9974733211938707,-0.007526350440476768,-0.0064955273632042974,0.07034298600280177,0.5558357,-0.6677154,0.14988211,-0.46179792,-0.06866763,-0.028059395,0,0,0,0,0,0,0,0,0,0,0,0,0,0,0,0,0,0,0,0,0,0,0,0,0,0,0,0
158,3.16,-0.31920993,0.36529648,4.900221824645996,0.9974349286997948,-0.012534880135849111,-0.007606239877087856,0.0700612939114578,0.55293906,-0.6642402,0.14376743,-0.5435716,-0.09184912,-0.023436606,0,0,0,0,0,0,0,0,0,0,0,0,0,0,0,0,0,0,0,0,0,0,0,0,0,0,0,0
159,3.18,-0.30818528,0.35206282,4.903040409088135,0.9973576246432144,-0.01788898983571816,-0.009205500369629938,0.06980695790282951,0.5493985,-0.658789,0.13831249,-0.52900016,-0.15591429,-0.02281659,0,0,0,0,0,0,0,0,0,0,0,0,0,0,0,0,0,0,0,0,0,0,0,0,0,0,0,0
160,3.2,-0.29724,0.33895826,4.90576696395874,0.9972577574441052,-0.022538138824657834,-0.011405703536212541,0.069562255877156,0.54496706,-0.65136504,0.13461508,-0.41647285,-0.2127941,-0.024202058,0,0,0,0,0,0,0,0,0,0,0,0,0,0,0,0,0,0,0,0,0,0,0,0,0,0,0,0
161,3.22,-0.28639373,0.32601884,4.908435821533203,0.9971636218621743,-0.025811865779264,-0.013853559013070789,0.06932919819509643,0.5394794,-0.64236546,0.13244759,-0.2717785,-0.2188995,-0.024217699,0,0,0,0,0,0,0,0,0,0,0,0,0,0,0,0,0,0,0,0,0,0,0,0,0,0,0,0
162,3.24,-0.27566746,0.31327027,4.911066055297852,0.9970915562046869,-0.0278445841605369,-0.015972171338050206,0.06912305997994175,0.53300256,-0.6323737,0.13048935,-0.1764101,-0.16579156,-0.020552343,0,0,0,0,0,0,0,0,0,0,0,0,0,0,0,0,0,0,0,0,0,0,0,0,0,0,0,0
163,3.2600000000000002,-0.26507837,0.30072758,4.913646697998047,0.9970350286641583,-0.02941043571182565,-0.01734639201567665,0.06895854241455501,0.5258231,-0.62181574,0.12727004,-0.17075354,-0.08409754,-0.013688634,0,0,0,0,0,0,0,0,0,0,0,0,0,0,0,0,0,0,0,0,0,0,0,0,0,0,0,0
164,3.2800000000000002,-0.254637,0.28840098,4.916144371032715,0.996973236629603,-0.031337908801821385,-0.017987627119738822,0.06883855160317963,0.5182745,-0.61074555,0.12218253,-0.23042162,-0.023143716,-0.006618409,0,0,0,0,0,0,0,0,0,0,0,0,0,0,0,0,0,0,0,0,0,0,0,0,0,0,0,0
165,3.3000000000000003,-0.24434856,0.2763029,4.9185261726379395,0.9968876039168338,-0.03394193765418909,-0.018329499358854508,0.06875375974073634,0.51054204,-0.5989135,0.11580086,-0.28972855,-0.019566737,-0.0025119127,0,0,0,0,0,0,0,0,0,0,0,0,0,0,0,0,0,0,0,0,0,0,0,0,0,0,0,0
166,3.3200000000000003,-0.23421685,0.26445162,4.920777797698975,0.9967761715565392,-0.03687085776773083,-0.018951013474482442,0.06869252326746113,0.5025738,-0.58602506,0.10943393,-0.2920831,-0.07158281,-0.002294918,0,0,0,0,0,0,0,0,0,0,0,0,0,0,0,0,0,0,0,0,0,0,0,0,0,0,0,0
167,3.34,-0.22424874,0.25286973,4.922912120819092,0.9966566352822163,-0.039435322491514976,-0.020188470526173268,0.06865007170961522,0.4941384,-0.57198876,0.1043271,-0.22738186,-0.13926731,-0.004174622,0,0,0,0,0,0,0,0,0,0,0,0,0,0,0,0,0,0,0,0,0,0,0,0,0,0,0,0
168,3.36,-0.21445613,0.24157852,4.924962043762207,0.9965535246939797,-0.041120927694474986,-0.021913513871778704,0.06862899995878194,0.484993,-0.5570079,0.10096993,-0.13141629,-0.17360003,-0.0051445365,0,0,0,0,0,0,0,0,0,0,0,0,0,0,0,0,0,0,0,0,0,0,0,0,0,0,0,0
169,3.38,-0.20485434,0.23059309,4.926959037780762,0.9964811012450783,-0.041905383269668216,-0.023637667081167123,0.0686339158825889,0.475063,-0.5414783,0.098880835,-0.055457488,-0.1498483,-0.0030956853,0,0,0,0,0,0,0,0,0,0,0,0,0,0,0,0,0,0,0,0,0,0,0,0,0,0,0,0
170,3.4,-0.19545779,0.21992053,4.92891788482666,0.996436736550463,-0.042209917147008995,-0.024842286947591004,0.06866595755044487,0.46451128,-0.52576506,0.09699383,-0.031279806,-0.08121707,0.0018124821,0,0,0,0,0,0,0,0,0,0,0,0,0,0,0,0,0,0,0,0,0,0,0,0,0,0,0,0
171,3.42,-0.18627593,0.20956258,4.930833339691162,0.9964059262283964,-0.04257348041270643,-0.025302613296626107,0.06872049696300028,0.45364997,-0.51002175,0.094354495,-0.053476673,-0.008448722,0.007331095,0,0,0,0,0,0,0,0,0,0,0,0,0,0,0,0,0,0,0,0,0,0,0,0,0,0,0,0
172,3.44,-0.17731194,0.19952032,4.932684898376465,0.996372326667896,-0.04329254359367491,-0.025217836250879574,0.06878955628885373,0.4427597,-0.49417228,0.09065111,-0.087954044,0.026152007,0.010786394,0,0,0,0,0,0,0,0,0,0,0,0,0,0,0,0,0,0,0,0,0,0,0,0,0,0,0,0
173,3.46,-0.16856505,0.18979761,4.934455394744873,0.9963276634654221,-0.04426814241707251,-0.025075035153173802,0.0688677079082883,0.43193832,-0.47804043,0.0863322,-0.09885591,0.006087417,0.011030008,0,0,0,0,0,0,0,0,0,0,0,0,0,0,0,0,0,0,0,0,0,0,0,0,0,0,0,0
174,3.48,-0.1600347,0.18040143,4.936140537261963,0.9962759888167488,-0.045142034594795495,-0.025327047631484155,0.06895572114135477,0.421071,-0.4615126,0.0822983,-0.07286904,-0.048663866,0.009131385,0,0,0,0,0,0,0,0,0,0,0,0,0,0,0,0,0,0,0,0,0,0,0,0,0,0,0,0
175,3.5,-0.15172404,0.17133954,4.9377546310424805,0.9962287869872157,-0.04558354456121771,-0.026101023599650563,0.0690585332183271,0.40993172,-0.44463146,0.07934549,-0.023404092,-0.09680458,0.007418542,0,0,0,0,0,0,0,0,0,0,0,0,0,0,0,0,0,0,0,0,0,0,0,0,0,0,0,0
176,3.52,-0.14364044,0.16261734,4.9393229484558105,0.9961963656341397,-0.04550151907652079,-0.027138510561279396,0.06918030141287279,0.3983485,-0.42757937,0.077703446,0.023687012,-0.10431814,0.0078104804,0,0,0,0,0,0,0,0,0,0,0,0,0,0,0,0,0,0,0,0,0,0,0,0,0,0,0,0
177,3.54,-0.13579305,0.15423599,4.940868377685547,0.9961831588689941,-0.045060994239948186,-0.027986262550746554,0.06932091958666085,0.38632858,-0.41057888,0.07694988,0.04862307,-0.06512509,0.01062349,0,0,0,0,0,0,0,0,0,0,0,0,0,0,0,0,0,0,0,0,0,0,0,0,0,0,0,0
178,3.56,-0.1281889,0.14619277,4.94240140914917,0.9961872920145884,-0.044538227864083756,-0.02829076737205254,0.06947559261257537,0.3740673,-0.39378312,0.076306425,0.048590172,-0.002547403,0.014502298,0,0,0,0,0,0,0,0,0,0,0,0,0,0,0,0,0,0,0,0,0,0,0,0,0,0,0,0
179,3.58,-0.12083009,0.13848302,4.9439167976379395,0.9962019637139825,-0.044131994062976014,-0.02801167842737657,0.06963734963445717,0.36183846,-0.37722814,0.075092085,0.036468975,0.046715386,0.017429568,0,0,0,0,0,0,0,0,0,0,0,0,0,0,0,0,0,0,0,0,0,0,0,0,0,0,0,0
180,3.6,-0.113713756,0.13110234,4.945399761199951,0.9962188449108382,-0.043855475202373276,-0.02743200358194067,0.06980111402241175,0.34983906,-0.3608647,0.07308959,0.029618643,0.056194317,0.01813401,0,0,0,0,0,0,0,0,0,0,0,0,0,0,0,0,0,0,0,0,0,0,0,0,0,0,0,0
181,3.62,-0.1068348,0.124047585,4.946836948394775,0.9962325363105016,-0.04357046650395104,-0.026963968360422665,0.06996636660018592,0.33809105,-0.34463015,0.07064038,0.03727098,0.026285216,0.016903285,0,0,0,0,0,0,0,0,0,0,0,0,0,0,0,0,0,0,0,0,0,0,0,0,0,0,0,0
182,3.64,-0.10018934,0.11731641,4.948226451873779,0.9962424660282088,-0.04311852471329781,-0.02688080864467599,0.07013675095975194,0.32645836,-0.32850772,0.06840345,0.056235716,-0.01762775,0.01524165,0,0,0,0,0,0,0,0,0,0,0,0,0,0,0,0,0,0,0,0,0,0,0,0,0,0,0,0
183,3.66,-0.093776956,0.110906236,4.949578762054443,0.9962516182834203,-0.04243579986892674,-0.027156152161547754,0.07031684973695367,0.31475824,-0.31254283,0.066933155,0.076483294,-0.043612015,0.014742721,0,0,0,0,0,0,0,0,0,0,0,0,0,0,0,0,0,0,0,0,0,0,0,0,0,0,0,0
184,3.68,-0.08760019,0.104813084,4.950910568237305,0.9962646479367944,-0.04157537172979803,-0.02750777545362208,0.07050930453846094,0.30289134,-0.29681844,0.06635551,0.08966349,-0.033945728,0.016052008,0,0,0,0,0,0,0,0,0,0,0,0,0,0,0,0,0,0,0,0,0,0,0,0,0,0,0,0
185,3.7,-0.08166209,0.09903133,4.952238082885742,0.9962860255008246,-0.04064743649992127,-0.02759653986488723,0.07071331052384124,0.2909121,-0.28141415,0.066325046,0.09395616,0.0052610463,0.018561104,0,0,0,0,0,0,0,0,0,0,0,0,0,0,0,0,0,0,0,0,0,0,0,0,0,0,0,0
186,3.72,-0.07596325,0.093554035,4.9535651206970215,0.996317438720659,-0.039736811711420746,-0.027242887720501995,0.07092511660029072,0.2789993,-0.2663778,0.066249445,0.09355624,0.049829915,0.020918569,0,0,0,0,0,0,0,0,0,0,0,0,0,0,0,0,0,0,0,0,0,0,0,0,0,0,0,0
187,3.74,-0.07050032,0.088373646,4.9548845291137695,0.9963561799308093,-0.038854800204993815,-0.026528428129123892,0.07114007109718719,0.26734942,-0.25172317,0.06563918,0.09434147,0.07386744,0.021968108,0,0,0,0,0,0,0,0,0,0,0,0,0,0,0,0,0,0,0,0,0,0,0,0,0,0,0,0
188,3.7600000000000002,-0.065266795,0.083482586,4.956185817718506,0.9963966031176624,-0.03795232574225493,-0.025727468691514384,0.07135494111177472,0.25606492,-0.23744553,0.06438622,0.09899864,0.066293396,0.021492245,0,0,0,0,0,0,0,0,0,0,0,0,0,0,0,0,0,0,0,0,0,0,0,0,0,0,0,0
189,3.7800000000000002,-0.060255494,0.07887335,4.957458019256592,0.9964333765789918,-0.03697677895801494,-0.025120979714090892,0.07156940851707227,0.24511026,-0.22353937,0.062800914,0.10550409,0.036865104,0.020269219,0,0,0,0,0,0,0,0,0,0,0,0,0,0,0,0,0,0,0,0,0,0,0,0,0,0,0,0
190,3.8000000000000003,-0.055461034,0.074538514,4.958699703216553,0.9964639765416394,-0.03592067250197976,-0.024820629543419036,0.07178568862173841,0.23435691,-0.2100067,0.06138818,0.11002807,0.008077104,0.019456156,0,0,0,0,0,0,0,0,0,0,0,0,0,0,0,0,0,0,0,0,0,0,0,0,0,0,0,0
191,3.8200000000000003,-0.050880726,0.07047052,4.9599175453186035,0.9964895583888942,-0.03482300533034427,-0.024716574395790426,0.07200700849088863,0.22367957,-0.19685599,0.060522936,0.11091819,-0.00039263844,0.019792704,0,0,0,0,0,0,0,0,0,0,0,0,0,0,0,0,0,0,0,0,0,0,0,0,0,0,0,0
192,3.84,-0.046513613,0.066661626,4.961124420166016,0.9965141960470401,-0.03373132930537137,-0.024569684280088117,0.07223562219840529,0.21304032,-0.18409781,0.060234476,0.10996814,0.016282637,0.021174649,0,0,0,0,0,0,0,0,0,0,0,0,0,0,0,0,0,0,0,0,0,0,0,0,0,0,0,0
193,3.86,-0.04235838,0.06310387,4.962329864501953,0.9965423219273335,-0.03266266493375069,-0.024174960651016153,0.07247152685452563,0.20251164,-0.17174354,0.060212452,0.11052307,0.046571165,0.022815151,0,0,0,0,0,0,0,0,0,0,0,0,0,0,0,0,0,0,0,0,0,0,0,0,0,0,0,0
194,3.88,-0.038411498,0.059789058,4.9635329246521,0.9965756889259771,-0.03159350883666143,-0.02348806695787828,0.07271215270973623,0.19222806,-0.1598073,0.060012065,0.114498526,0.07132358,0.023817636,0,0,0,0,0,0,0,0,0,0,0,0,0,0,0,0,0,0,0,0,0,0,0,0,0,0,0,0
195,3.9,-0.034666836,0.05670865,4.964726448059082,0.9966122306614462,-0.030483639910536747,-0.022639968801588983,0.07295369220597445,0.18230179,-0.14830637,0.059329275,0.12057806,0.07654433,0.023763116,0,0,0,0,0,0,0,0,0,0,0,0,0,0,0,0,0,0,0,0,0,0,0,0,0,0,0,0
196,3.92,-0.031116826,0.053853773,4.965901851654053,0.99664762561083,-0.029314185445365775,-0.021839530664183832,0.0731930583890168,0.1727597,-0.13725625,0.05817462,0.124958076,0.06186526,0.022935217,0,0,0,0,0,0,0,0,0,0,0,0,0,0,0,0,0,0,0,0,0,0,0,0,0,0,0,0
197,3.94,-0.027754279,0.051215336,4.967051982879639,0.99667801221071,-0.02810919004712953,-0.021235276701816467,0.07342939761430513,0.16354026,-0.12666264,0.056838524,0.12435063,0.039465595,0.022061717,0,0,0,0,0,0,0,0,0,0,0,0,0,0,0,0,0,0,0,0,0,0,0,0,0,0,0,0
198,3.96,-0.024573723,0.048784267,4.96817684173584,0.9967020344673642,-0.02692136383345276,-0.02082927608768595,0.07366434629878206,0.15454474,-0.11651644,0.05568631,0.118859075,0.0249704,0.02179075,0,0,0,0,0,0,0,0,0,0,0,0,0,0,0,0,0,0,0,0,0,0,0,0,0,0,0,0
199,3.98,-0.02157146,0.046551816,4.969282150268555,0.9967213346273236,-0.02579329761630537,-0.020492946865494167,0.07390078501322987,0.14570472,-0.10679702,0.054927494,0.11216333,0.027169678,0.022280136,0,0,0,0,0,0,0,0,0,0,0,0,0,0,0,0,0,0,0,0,0,0,0,0,0,0,0,0
200,4.0,-0.018744482,0.044509664,4.970376014709473,0.9967393047418754,-0.024725877919453635,-0.02006330002455346,0.0741407670308281,0.13702318,-0.09748354,0.054501995,0.10884658,0.04325443,0.023154454,0,0,0,0,0,0,0,0,0,0,0,0,0,0,0,0,0,0,0,0,0,0,0,0,0,0,0,0
201,4.0200000000000005,-0.01608902,0.04264981,4.971462249755859,0.9967587627972785,-0.023678359093120886,-0.019450271221658332,0.07438407791254859,0.12856685,-0.088567756,0.054139238,0.11104516,0.061848085,0.023807801,0,0,0,0,0,0,0,0,0,0,0,0,0,0,0,0,0,0,0,0,0,0,0,0,0,0,0,0
202,4.04,-0.0135997245,0.040964223,4.97253942489624,0.9967801802098083,-0.02259912431719707,-0.018686781923678595,0.07462811871094399,0.12041843,-0.08005891,0.053541794,0.11686326,0.07111851,0.02381872,0,0,0,0,0,0,0,0,0,0,0,0,0,0,0,0,0,0,0,0,0,0,0,0,0,0,0,0
203,4.0600000000000005,-0.011269891,0.03944458,4.9736008644104,0.9968016812201265,-0.021464632025662782,-0.017895733828888843,0.07486935687888313,0.11262355,-0.07197642,0.05257161,0.121612914,0.06638262,0.023202715,0,0,0,0,0,0,0,0,0,0,0,0,0,0,0,0,0,0,0,0,0,0,0,0,0,0,0,0
204,4.08,-0.009092501,0.038082194,4.974639892578125,0.9968205484372733,-0.020298738912489112,-0.01720307251589442,0.07510532409749043,0.10516684,-0.06433462,0.05132096,0.121075474,0.0523473,0.022354824,0,0,0,0,0,0,0,0,0,0,0,0,0,0,0,0,0,0,0,0,0,0,0,0,0,0,0,0
205,4.1,-0.007061348,0.03686825,4.975653648376465,0.9968349830956502,-0.01915786210479773,-0.01665828981951907,0.07533587576020605,0.09798888,-0.05712978,0.05003255,0.114524975,0.039029807,0.021750025,0,0,0,0,0,0,0,0,0,0,0,0,0,0,0,0,0,0,0,0,0,0,0,0,0,0,0,0
206,4.12,-0.0051714987,0.03579422,4.976643085479736,0.9968450443544588,-0.018092348527000982,-0.016212679129013294,0.07556304325657207,0.091028124,-0.050338205,0.04893415,0.105280094,0.03473256,0.021625055,0,0,0,0,0,0,0,0,0,0,0,0,0,0,0,0,0,0,0,0,0,0,0,0,0,0,0,0
207,4.14,-0.0034189492,0.034852166,4.977612495422363,0.9968523947609552,-0.01711230231091121,-0.015762484161930605,0.07578928857044184,0.08425846,-0.043926943,0.04810034,0.09835243,0.04096889,0.021854406,0,0,0,0,0,0,0,0,0,0,0,0,0,0,0,0,0,0,0,0,0,0,0,0,0,0,0,0
208,4.16,-0.0017997439,0.03403477,4.978567600250244,0.9968590876011146,-0.016182401101478394,-0.015221729081223098,0.07601571104345302,0.07770013,-0.037870318,0.04742266,0.096967116,0.052319292,0.022077132,0,0,0,0,0,0,0,0,0,0,0,0,0,0,0,0,0,0,0,0,0,0,0,0,0,0,0,0
209,4.18,-0.000309204,0.033335026,4.979509353637695,0.9968662513106289,-0.0152482449275601,-0.014575196235471058,0.07624127280693066,0.071400024,-0.0321614,0.046695877,0.10043139,0.06070139,0.021959787,0,0,0,0,0,0,0,0,0,0,0,0,0,0,0,0,0,0,0,0,0,0,0,0,0,0,0,0
210,4.2,0.001058263,0.03274591,4.980434417724609,0.9968735777929792,-0.014274902631397125,-0.01388025271243363,0.07646329601663746,0.06539704,-0.026810566,0.04575682,0.10471303,0.060859215,0.021410538,0,0,0,0,0,0,0,0,0,0,0,0,0,0,0,0,0,0,0,0,0,0,0,0,0,0,0,0
211,4.22,0.002308719,0.032260098,4.9813385009765625,0.9968798109684406,-0.013271079368343446,-0.013222071869904884,0.07667918721134508,0.05969676,-0.021832336,0.044583164,0.10526287,0.05341174,0.020611677,0,0,0,0,0,0,0,0,0,0,0,0,0,0,0,0,0,0,0,0,0,0,0,0,0,0,0,0
212,4.24,0.0034479746,0.031870082,4.982216835021973,0.996883742694137,-0.012282627696265787,-0.012656350635658746,0.07688795352714183,0.05427026,-0.01722956,0.04329311,0.100122705,0.04374306,0.019869097,0,0,0,0,0,0,0,0,0,0,0,0,0,0,0,0,0,0,0,0,0,0,0,0,0,0,0,0
213,4.26,0.004481076,0.0315685,4.983070373535156,0.9968849900797273,-0.011360707723489887,-0.01217782544605281,0.07709054054272085,0.04907458,-0.012985578,0.042057257,0.09116927,0.03794338,0.019398242,0,0,0,0,0,0,0,0,0,0,0,0,0,0,0,0,0,0,0,0,0,0,0,0,0,0,0,0
214,4.28,0.0054122964,0.031348463,4.983900547027588,0.9968841232622083,-0.010527466328720063,-0.011731690883960406,0.07728896861415008,0.0440791,-0.009069157,0.04098755,0.08268917,0.03881512,0.019195158,0,0,0,0,0,0,0,0,0,0,0,0,0,0,0,0,0,0,0,0,0,0,0,0,0,0,0,0
215,4.3,0.006245559,0.031203752,4.984711170196533,0.9968822003056641,-0.009762983293568981,-0.011255086623742003,0.07748474621523474,0.03928056,-0.005448587,0.040075324,0.0783924,0.04450831,0.019068323,0,0,0,0,0,0,0,0,0,0,0,0,0,0,0,0,0,0,0,0,0,0,0,0,0,0,0,0
216,4.32,0.006984976,0.031128665,4.985504150390625,0.9968800808598106,-0.009021190105723095,-0.01071843072676027,0.07767778161591184,0.034698855,-0.0021053846,0.03921133,0.0789694,0.050298,0.018789042,0,0,0,0,0,0,0,0,0,0,0,0,0,0,0,0,0,0,0,0,0,0,0,0,0,0,0,0
217,4.34,0.00763514,0.031117687,4.986279010772705,0.9968779806258482,-0.008262499641839892,-0.010140260864569279,0.0778665393644686,0.030358588,0.0009614509,0.03826666,0.08180069,0.051991418,0.018247135,0,0,0,0,0,0,0,0,0,0,0,0,0,0,0,0,0,0,0,0,0,0,0,0,0,0,0,0
218,4.36,0.008201015,0.031165207,4.987033843994141,0.9968755309505127,-0.007480275002149029,-0.00956938550794079,0.07804901113419492,0.026269972,0.0037430492,0.03717724,0.082886264,0.048565347,0.01750968,0,0,0,0,0,0,0,0,0,0,0,0,0,0,0,0,0,0,0,0,0,0,0,0,0,0,0,0
219,4.38,0.008687554,0.03126546,4.987765789031982,0.9968721818859138,-0.00670369268348941,-0.009049867712950754,0.07822412275507491,0.02242142,0.0062344624,0.03597754,0.07959441,0.042413853,0.016756278,0,0,0,0,0,0,0,0,0,0,0,0,0,0,0,0,0,0,0,0,0,0,0,0,0,0,0,0
220,4.4,0.0090993075,0.031412706,4.988472938537598,0.9968676439373962,-0.00597632334039877,-0.0085936346446606,0.07839217737522969,0.018786894,0.008445124,0.034768563,0.07234508,0.03734422,0.0161473,0,0,0,0,0,0,0,0,0,0,0,0,0,0,0,0,0,0,0,0,0,0,0,0,0,0,0,0
221,4.42,0.009440294,0.031601544,4.989156723022461,0.9968620475862247,-0.005326237400792815,-0.008177367687083987,0.07855456660856898,0.01534125,0.010399284,0.033648096,0.06414583,0.035930716,0.015721353,0,0,0,0,0,0,0,0,0,0,0,0,0,0,0,0,0,0,0,0,0,0,0,0,0,0,0,0
222,4.44,0.009714143,0.03182715,4.989819049835205,0.9968558197336559,-0.004748327622676598,-0.0077623273171940075,0.0787126058681155,0.012072762,0.012126714,0.032650996,0.05843015,0.03802989,0.015386708,0,0,0,0,0,0,0,0,0,0,0,0,0,0,0,0,0,0,0,0,0,0,0,0,0,0,0,0
223,4.46,0.009924419,0.032085247,4.990462779998779,0.9968493958771393,-0.00420990265030361,-0.007321328905814233,0.07886670274653583,0.008985425,0.013650373,0.031736,0.0567584,0.041248683,0.01500036,0,0,0,0,0,0,0,0,0,0,0,0,0,0,0,0,0,0,0,0,0,0,0,0,0,0,0,0
224,4.48,0.010074857,0.032371867,4.9910888671875,0.9968430011209443,-0.0036742322229034786,-0.006854590715355159,0.07901611050846709,0.0060909544,0.014979278,0.030821763,0.05791689,0.042799897,0.014470576,0,0,0,0,0,0,0,0,0,0,0,0,0,0,0,0,0,0,0,0,0,0,0,0,0,0,0,0
225,4.5,0.010169406,0.032683104,4.991695404052734,0.996836601419551,-0.0031251498719817522,-0.006385851673269052,0.07915961348442761,0.0033969772,0.016111042,0.029843587,0.058919925,0.0413594,0.013812272,0,0,0,0,0,0,0,0,0,0,0,0,0,0,0,0,0,0,0,0,0,0,0,0,0,0,0,0
226,4.5200000000000005,0.010212059,0.033014964,4.992281436920166,0.9968300397531531,-0.002576214347632595,-0.005943912983306872,0.07929631053087502,0.00089951366,0.017041717,0.028793091,0.057112947,0.037716575,0.013124484,0,0,0,0,0,0,0,0,0,0,0,0,0,0,0,0,0,0,0,0,0,0,0,0,0,0,0,0
227,4.54,0.01020661,0.033363454,4.992846488952637,0.9968231973529779,-0.002059418738037992,-0.005543548325000107,0.07942632488927127,-0.0014160934,0.01777589,0.027717205,0.051911656,0.0339585,0.012513985,0,0,0,0,0,0,0,0,0,0,0,0,0,0,0,0,0,0,0,0,0,0,0,0,0,0,0,0
228,4.5600000000000005,0.010156515,0.033724792,4.9933905601501465,0.996816097404772,-0.0016023584677719365,-0.005178171630857542,0.07955053073752737,-0.0035676726,0.01833032,0.026682805,0.045042053,0.031927414,0.0120238615,0,0,0,0,0,0,0,0,0,0,0,0,0,0,0,0,0,0,0,0,0,0,0,0,0,0,0,0
229,4.58,0.010064918,0.034095623,4.993914604187012,0.9968088733465114,-0.0012099616549121,-0.004827268847562007,0.07966996602186728,-0.0055678813,0.018729212,0.025733313,0.039230138,0.032068115,0.011613879,0,0,0,0,0,0,0,0,0,0,0,0,0,0,0,0,0,0,0,0,0,0,0,0,0,0,0,0
230,4.6000000000000005,0.009934791,0.034473065,4.994420528411865,0.9968016844562949,-0.0008626024729088916,-0.004471611882385335,0.07978510180002425,-0.007420395,0.018994752,0.02486523,0.03632775,0.033352528,0.011199301,0,0,0,0,0,0,0,0,0,0,0,0,0,0,0,0,0,0,0,0,0,0,0,0,0,0,0,0
231,4.62,0.009769115,0.034854595,4.994909286499023,0.996794635254264,-0.0005306310442012068,-0.0041053508423766006,0.07989567981733989,-0.009122332,0.019139592,0.024036853,0.03616065,0.03416779,0.010714574,0,0,0,0,0,0,0,0,0,0,0,0,0,0,0,0,0,0,0,0,0,0,0,0,0,0,0,0
232,4.64,0.009570933,0.03523785,4.995381832122803,0.996787751318766,-0.0001944044089862004,-0.0037377075745379804,0.08000106605471549,-0.010670438,0.019166004,0.023199802,0.03680653,0.03345386,0.01015588,0,0,0,0,0,0,0,0,0,0,0,0,0,0,0,0,0,0,0,0,0,0,0,0,0,0,0,0
233,4.66,0.009343318,0.03562042,4.995837211608887,0.9967810187417603,0.00014390311528953488,-0.0033847210265922877,0.08010070930774671,-0.012066547,0.01907187,0.022330297,0.036001556,0.031305045,0.009576117,0,0,0,0,0,0,0,0,0,0,0,0,0,0,0,0,0,0,0,0,0,0,0,0,0,0,0,0
234,4.68,0.009089235,0.035999916,4.996274948120117,0.9967744238076993,0.0004638737684039715,-0.0030579395128267906,0.08019464988321952,-0.013318917,0.018858913,0.021441197,0.03266196,0.028721489,0.009042169,0,0,0,0,0,0,0,0,0,0,0,0,0,0,0,0,0,0,0,0,0,0,0,0,0,0,0,0
235,4.7,0.008811447,0.03637405,4.996695041656494,0.9967679789889707,0.0007422641206777814,-0.0027578325063729297,0.08028349435646688,-0.014439334,0.018537581,0.020569777,0.02750758,0.026813187,0.008587992,0,0,0,0,0,0,0,0,0,0,0,0,0,0,0,0,0,0,0,0,0,0,0,0,0,0,0,0
236,4.72,0.0085124755,0.03674082,4.997097969055176,0.9967617167353511,0.0009691017819420462,-0.0024753254622356187,0.08036798900300908,-0.015438476,0.018125566,0.01975183,0.022445355,0.026063101,0.008196289,0,0,0,0,0,0,0,0,0,0,0,0,0,0,0,0,0,0,0,0,0,0,0,0,0,0,0,0
237,4.74,0.008194678,0.037098594,4.997485160827637,0.9967556680169382,0.0011537229727918068,-0.0021991729454715414,0.08044856019696876,-0.016322726,0.017641475,0.019000044,0.01921463,0.026119372,0.007817461,0,0,0,0,0,0,0,0,0,0,0,0,0,0,0,0,0,0,0,0,0,0,0,0,0,0,0,0
238,4.76,0.007860323,0.037446078,4.997858047485352,0.9967498464371731,0.0013175430623767817,-0.0019234439497220165,0.08052520146589348,-0.01709421,0.017098192,0.018299457,0.018260015,0.026171204,0.0074083423,0,0,0,0,0,0,0,0,0,0,0,0,0,0,0,0,0,0,0,0,0,0,0,0,0,0,0,0
239,4.78,0.0075116637,0.037782148,4.9982171058654785,0.9967442633352288,0.0014794716481008878,-0.0016502847987566217,0.08059752621537178,-0.017753419,0.016500333,0.017620329,0.018548515,0.025556121,0.0069613126,0,0,0,0,0,0,0,0,0,0,0,0,0,0,0,0,0,0,0,0,0,0,0,0,0,0,0,0
240,4.8,0.007150928,0.038105715,4.998562335968018,0.9967389223892552,0.0016441937892738103,-0.0013870634300889987,0.08066531643854466,-0.01830239,0.01584721,0.016938495,0.018373227,0.0241672,0.006505392,0,0,0,0,0,0,0,0,0,0,0,0,0,0,0,0,0,0,0,0,0,0,0,0,0,0,0,0
241,4.82,0.006780274,0.03841566,4.998894214630127,0.996733837976111,0.0018008139690913658,-0.0011406771175777992,0.08072863282735547,-0.018746296,0.015138816,0.016249515,0.016530564,0.022421595,0.0060816207,0,0,0,0,0,0,0,0,0,0,0,0,0,0,0,0,0,0,0,0,0,0,0,0,0,0,0,0
242,4.84,0.00640173,0.03871093,4.999212741851807,0.9967290236232694,0.0019318903516233206,-0.0009132535112999681,0.0807879151525605,-0.019092767,0.014380674,0.015568659,0.01306886,0.020884745,0.0057130875,0,0,0,0,0,0,0,0,0,0,0,0,0,0,0,0,0,0,0,0,0,0,0,0,0,0,0,0
243,4.86,0.006017163,0.038990628,4.999517440795898,0.9967244823204412,0.0020260580429656027,-0.0007017433945459709,0.08084373190336688,-0.019349815,0.013584389,0.014918902,0.009153759,0.019869842,0.005391384,0,0,0,0,0,0,0,0,0,0,0,0,0,0,0,0,0,0,0,0,0,0,0,0,0,0,0,0
244,4.88,0.005628293,0.03925414,4.999809741973877,0.9967202085868104,0.002085596331115986,-0.0005008676763099073,0.08089638566820696,-0.019523913,0.012763922,0.014315993,0.0062064677,0.019283373,0.0050862846,0,0,0,0,0,0,0,0,0,0,0,0,0,0,0,0,0,0,0,0,0,0,0,0,0,0,0,0
245,4.9,0.0052367337,0.0395011,5.0000901222229,0.9967161800620492,0.0021243568549461495,-0.0003068393164722322,0.0809459656814566,-0.019619351,0.011930374,0.013759747,0.0049512205,0.018775307,0.004769677,0,0,0,0,0,0,0,0,0,0,0,0,0,0,0,0,0,0,0,0,0,0,0,0,0,0,0,0
246,4.92,0.0048440285,0.039731305,5.000360488891602,0.9967123878414048,0.0021582584376009513,-0.00011928424010590038,0.08099224416739957,-0.019639015,0.011088875,0.013236097,0.0050014663,0.018030353,0.004435383,0,0,0,0,0,0,0,0,0,0,0,0,0,0,0,0,0,0,0,0,0,0,0,0,0,0,0,0
247,4.94,0.0044516637,0.0399446,5.000620365142822,0.9967088250763345,0.00219522326935981,5.946084031038752e-05,0.08103514962137741,-0.019585777,0.01023945,0.012727042,0.005207395,0.016974136,0.0041005653,0,0,0,0,0,0,0,0,0,0,0,0,0,0,0,0,0,0,0,0,0,0,0,0,0,0,0,0
248,4.96,0.0040610614,0.04014082,5.000870227813721,0.9967054966327413,0.002231225603050764,0.00022658518773685456,0.08107480048413027,-0.019463496,0.009380972,0.012221629,0.004474549,0.01576475,0.003790985,0,0,0,0,0,0,0,0,0,0,0,0,0,0,0,0,0,0,0,0,0,0,0,0,0,0,0,0
249,4.98,0.0036735544,0.04031979,5.001110076904297,0.9967024080941728,0.0022545287328111195,0.00038074658082753424,0.08111153944730223,-0.019277187,0.008515319,0.011721247,0.0024747858,0.014629779,0.003521572,0,0,0,0,0,0,0,0,0,0,0,0,0,0,0,0,0,0,0,0,0,0,0,0,0,0,0,0
250,5.0,0.003290367,0.040481426,5.001339435577393,0.9966995585399323,0.0022546236791759007,0.0005225559942932261,0.08114575536404924,-0.0190324,0.00764897,0.011236957,-0.00020793805,0.0136856055,0.003286802,0,0,0,0,0,0,0,0,0,0,0,0,0,0,0,0,0,0,0,0,0,0,0,0,0,0,0,0
251,5.0200000000000005,0.0029126152,0.040625803,5.001559734344482,0.9966969349824009,0.0022295592838683753,0.0006536464158275676,0.08117771620617661,-0.018734457,0.006791224,0.010781516,-0.002540736,0.012882593,0.0030666066,0,0,0,0,0,0,0,0,0,0,0,0,0,0,0,0,0,0,0,0,0,0,0,0,0,0,0,0
252,5.04,0.0025413148,0.04075319,5.001770973205566,0.9966945175864884,0.002187036825887205,0.000775422267269001,0.08120747627692236,-0.018387962,0.00595049,0.010361258,-0.0037509762,0.012088541,0.0028421762,0,0,0,0,0,0,0,0,0,0,0,0,0,0,0,0,0,0,0,0,0,0,0,0,0,0,0,0
253,5.0600000000000005,0.0021773968,0.040863972,5.001974105834961,0.9966922914481289,0.002139095051733001,0.0008884418408398174,0.08123491313058089,-0.01799681,0.0051312726,0.009972896,-0.0038116968,0.011216342,0.0026093556,0,0,0,0,0,0,0,0,0,0,0,0,0,0,0,0,0,0,0,0,0,0,0,0,0,0,0,0
254,5.08,0.001821719,0.04095859,5.002169609069824,0.9966902395364001,0.002094369674940769,0.0009926476211453486,0.08126004355916991,-0.017564472,0.0043337666,0.009606205,-0.003394155,0.010289157,0.0023797152,0,0,0,0,0,0,0,0,0,0,0,0,0,0,0,0,0,0,0,0,0,0,0,0,0,0,0,0
255,5.1000000000000005,0.0014750721,0.041037455,5.002358436584473,0.9966883585981332,0.002053248996363655,0.0010879528558403423,0.08128294016644136,-0.01709429,0.0035561344,0.00925044,-0.003371613,0.009399367,0.0021707711,0,0,0,0,0,0,0,0,0,0,0,0,0,0,0,0,0,0,0,0,0,0,0,0,0,0,0,0
256,5.12,0.0011381787,0.04110096,5.00253963470459,0.9966866426923214,0.0020088293669989024,0.0011745416377906424,0.08130388265774269,-0.0165897,0.0027977347,0.008900122,-0.0042335023,0.008609851,0.00199234,0,0,0,0,0,0,0,0,0,0,0,0,0,0,0,0,0,0,0,0,0,0,0,0,0,0,0,0
257,5.14,0.0008116913,0.04114951,5.002714157104492,0.9966850840943536,0.001952548900798675,0.0012526614974904687,0.08132319186919594,-0.016054284,0.0020610974,0.008557332,-0.005802627,0.00789299,0.0018396578,0,0,0,0,0,0,0,0,0,0,0,0,0,0,0,0,0,0,0,0,0,0,0,0,0,0,0,0
258,5.16,0.00049618946,0.041183583,5.00288200378418,0.9966836760372418,0.0018803826864156718,0.0013222850489881524,0.08134104526063247,-0.015491769,0.0013514643,0.008229354,-0.007411077,0.00715703,0.0016977751,0,0,0,0,0,0,0,0,0,0,0,0,0,0,0,0,0,0,0,0,0,0,0,0,0,0,0,0
259,5.18,0.0001921769,0.041203786,5.0030436515808105,0.9966824116876469,0.0017955520956796256,0.0013830725387056543,0.08135744179557478,-0.01490598,0.0006744117,0.007923493,-0.008376008,0.006329178,0.0015530958,0,0,0,0,0,0,0,0,0,0,0,0,0,0,0,0,0,0,0,0,0,0,0,0,0,0,0,0
260,5.2,-9.991898e-05,0.041210804,5.003199100494385,0.996681271778877,0.0017062334720890765,0.0014347890177255798,0.08137243165257878,-0.0143007105,3.3277393e-05,0.0076424386,-0.008449448,0.005432129,0.0014026667,0,0,0,0,0,0,0,0,0,0,0,0,0,0,0,0,0,0,0,0,0,0,0,0,0,0,0,0
261,5.22,-0.00037974448,0.04120536,5.003349304199219,0.996680254612793,0.0016202110088984,0.0014778850144223788,0.08138587615274069,-0.013679485,-0.00057188515,0.007382851,-0.007940064,0.004578656,0.00125537,0,0,0,0,0,0,0,0,0,0,0,0,0,0,0,0,0,0,0,0,0,0,0,0,0,0,0,0
262,5.24,-0.0006470117,0.041188158,5.0034942626953125,0.9966793464143693,0.0015402576670405892,0.0015136233839984621,0.08139789298007785,-0.013045337,-0.0011432681,0.0071372637,-0.007466167,0.003880986,0.0011243996,0,0,0,0,0,0,0,0,0,0,0,0,0,0,0,0,0,0,0,0,0,0,0,0,0,0,0,0
263,5.26,-0.0009014878,0.041159846,5.003634452819824,0.9966785337663343,0.0014631452696895122,0.001543495711336371,0.08140870442587134,-0.012400742,-0.0016830391,0.00689827,-0.007529756,0.0033583003,0.0010171178,0,0,0,0,0,0,0,0,0,0,0,0,0,0,0,0,0,0,0,0,0,0,0,0,0,0,0,0
264,5.28,-0.0011429854,0.041121054,5.003769874572754,0.9966778047262713,0.0013826425899814386,0.0015683469672407265,0.08141856147881264,-0.011747819,-0.0021914246,0.0066625983,-0.008203476,0.0029125973,0.00092980947,0,0,0,0,0,0,0,0,0,0,0,0,0,0,0,0,0,0,0,0,0,0,0,0,0,0,0,0
265,5.3,-0.0013713591,0.04107242,5.00390100479126,0.9966771527240632,0.001294171458818882,0.0015878293779553268,0.0814276191224827,-0.011088729,-0.002666363,0.0064322236,-0.0091249645,0.002393126,0.00085054705,0,0,0,0,0,0,0,0,0,0,0,0,0,0,0,0,0,0,0,0,0,0,0,0,0,0,0,0
266,5.32,-0.0015865101,0.041014653,5.004027843475342,0.9966765788312494,0.0011979679596165987,0.0016006973379516253,0.08143586341432331,-0.010426013,-0.00310481,0.0062124585,-0.009768509,0.0017128673,0.0007680267,0,0,0,0,0,0,0,0,0,0,0,0,0,0,0,0,0,0,0,0,0,0,0,0,0,0,0,0
267,5.34,-0.001788395,0.04094849,5.004150390625,0.9966760799777178,0.0010988339148266957,0.001605838224795029,0.08144326520881524,-0.009762642,-0.0035046968,0.006008358,-0.009803016,0.00091639656,0.0006794541,0,0,0,0,0,0,0,0,0,0,0,0,0,0,0,0,0,0,0,0,0,0,0,0,0,0,0,0
268,5.36,-0.0019770318,0.040874727,5.004268646240234,0.9966756549920786,0.0010029040518705061,0.0016032914103945666,0.08144975375178905,-0.009101677,-0.0038661994,0.0058212853,-0.009290448,0.00015756265,0.0005917894,0,0,0,0,0,0,0,0,0,0,0,0,0,0,0,0,0,0,0,0,0,0,0,0,0,0,0,0
269,5.38,-0.002152496,0.040794093,5.004383087158203,0.996675294332474,0.0009138401474464137,0.0015945583337537528,0.08145538623799753,-0.008445754,-0.004191539,0.005647962,-0.008609592,-0.0004076056,0.00051592116,0,0,0,0,0,0,0,0,0,0,0,0,0,0,0,0,0,0,0,0,0,0,0,0,0,0,0,0
270,5.4,-0.0023149084,0.04070729,5.0044941902160645,0.9966749836800519,0.0008309423484450257,0.0015818511928922076,0.08146032278345934,-0.007796715,-0.0044835676,0.005482206,-0.0081881145,-0.0007380296,0.00045848588,0,0,0,0,0,0,0,0,0,0,0,0,0,0,0,0,0,0,0,0,0,0,0,0,0,0,0,0
271,5.42,-0.0024644183,0.040614963,5.004601955413818,0.9966747070467751,0.0007502238424293521,0.0015667809363760427,0.08146478193003825,-0.007155672,-0.004744166,0.005318496,-0.008225101,-0.0009395798,0.00041695128,0,0,0,0,0,0,0,0,0,0,0,0,0,0,0,0,0,0,0,0,0,0,0,0,0,0,0,0
272,5.44,-0.0026011947,0.040517733,5.004706859588623,0.9966744586263723,0.0006674871164524467,0.0015494131447364415,0.08146887320740377,-0.006523482,-0.0049734875,0.005154943,-0.008585992,-0.0011939137,0.00038163125,0,0,0,0,0,0,0,0,0,0,0,0,0,0,0,0,0,0,0,0,0,0,0,0,0,0,0,0
273,5.46,-0.0027254252,0.040416237,5.00480842590332,0.9966742375286612,0.000581248833360554,0.0015283612074878895,0.0814726365626811,-0.0059013343,-0.005170466,0.0049940203,-0.008919396,-0.0016308461,0.0003425214,0,0,0,0,0,0,0,0,0,0,0,0,0,0,0,0,0,0,0,0,0,0,0,0,0,0,0,0
274,5.48,-0.0028373275,0.040311135,5.004907131195068,0.9966740534730428,0.0004936497584388903,0.00150191080701485,0.08147595784928112,-0.005291052,-0.0053341426,0.0048407093,-0.008902762,-0.0022349532,0.00029629443,0,0,0,0,0,0,0,0,0,0,0,0,0,0,0,0,0,0,0,0,0,0,0,0,0,0,0,0
275,5.5,-0.002937162,0.040203087,5.005002498626709,0.9966739079181145,0.00040893195730442087,0.0014694055953573637,0.08147880029237248,-0.004694882,-0.005464875,0.0046989075,-0.008447713,-0.0028542648,0.00024803955,0,0,0,0,0,0,0,0,0,0,0,0,0,0,0,0,0,0,0,0,0,0,0,0,0,0,0,0
276,5.5200000000000005,-0.0030252323,0.040092748,5.0050950050354,0.9966737976527255,0.0003306794468455008,0.0014319193262890848,0.08148117163271991,-0.004114916,-0.005564646,0.0045688837,-0.0077399304,-0.0033055933,0.0002070263,0,0,0,0,0,0,0,0,0,0,0,0,0,0,0,0,0,0,0,0,0,0,0,0,0,0,0,0
277,5.54,-0.0031018772,0.03998069,5.005185604095459,0.9966737101637316,0.00025968862021745974,0.0013917493114929398,0.08148319497992405,-0.0035525123,-0.0056363465,0.004446973,-0.0070969183,-0.003503158,0.00017979155,0,0,0,0,0,0,0,0,0,0,0,0,0,0,0,0,0,0,0,0,0,0,0,0,0,0,0,0
278,5.5600000000000005,-0.003167454,0.039867457,5.005273342132568,0.996673634342461,0.00019381916843320355,0.0013510338988758047,0.08148499093774488,-0.0030081337,-0.005682572,0.0043275324,-0.00675473,-0.0035187888,0.00016556108,0,0,0,0,0,0,0,0,0,0,0,0,0,0,0,0,0,0,0,0,0,0,0,0,0,0,0,0
279,5.58,-0.0032223228,0.039753545,5.0053582191467285,0.9966735599591805,0.00012973481590818845,0.0013104899826194315,0.0814866900983025,-0.0024817085,-0.005704752,0.004206416,-0.006723766,-0.0035305223,0.00015682999,0,0,0,0,0,0,0,0,0,0,0,0,0,0,0,0,0,0,0,0,0,0,0,0,0,0,0,0
280,5.6000000000000005,-0.003266843,0.039639425,5.005441665649414,0.9966734891439588,6.525480992622023e-05,0.0012691105681814873,0.08148828834736033,-0.0019732756,-0.0057031508,0.004083375,-0.006805581,-0.003699505,0.00014467195,0,0,0,0,0,0,0,0,0,0,0,0,0,0,0,0,0,0,0,0,0,0,0,0,0,0,0,0
281,5.62,-0.0033013793,0.039525572,5.005521774291992,0.9966734294659769,7.125462505862029e-07,0.0012250426197010916,0.08148971877851072,-0.0014834799,-0.0056776386,0.003961803,-0.006739503,-0.004061455,0.00012475614,0,0,0,0,0,0,0,0,0,0,0,0,0,0,0,0,0,0,0,0,0,0,0,0,0,0,0,0
282,5.64,-0.0033263164,0.039412465,5.0055999755859375,0.9966733879484869,-6.141710186018614e-05,0.0011770082667140176,0.08149091136295185,-0.0010135915,-0.0056286757,0.0038463655,-0.0063767754,-0.0045031034,0.00010024487,0,0,0,0,0,0,0,0,0,0,0,0,0,0,0,0,0,0,0,0,0,0,0,0,0,0,0,0
283,5.66,-0.003342067,0.03930057,5.00567626953125,0.9966733635454921,-0.0001182567489269904,0.0011253338182680413,0.08149187712928291,-0.0005650379,-0.005557841,0.003739759,-0.005764284,-0.004843791,7.887758e-05,0,0,0,0,0,0,0,0,0,0,0,0,0,0,0,0,0,0,0,0,0,0,0,0,0,0,0,0
284,5.68,-0.0033490676,0.039190292,5.005749702453613,0.9966733507629897,-0.0001683444470292569,0.001071856575694097,0.08149266631116338,-0.00013877104,-0.005467612,0.0036408987,-0.0050976044,-0.004959182,6.731821e-05,0,0,0,0,0,0,0,0,0,0,0,0,0,0,0,0,0,0,0,0,0,0,0,0,0,0,0,0
285,5.7,-0.003347768,0.039081983,5.00582218170166,0.9966733392611394,-0.00021241431399700392,0.0010188335789637958,0.08149338417532462,0.0002651014,-0.0053605945,0.003545703,-0.004587703,-0.004863166,6.644576e-05,0,0,0,0,0,0,0,0,0,0,0,0,0,0,0,0,0,0,0,0,0,0,0,0,0,0,0,0
286,5.72,-0.00333861,0.03897596,5.0058913230896,0.9966733205222048,-0.00025273452998822806,0.000967574462871641,0.0814941230038008,0.0006471818,-0.005238744,0.0034494721,-0.0043254956,-0.0046977187,7.099405e-05,0,0,0,0,0,0,0,0,0,0,0,0,0,0,0,0,0,0,0,0,0,0,0,0,0,0,0,0
287,5.74,-0.0033220218,0.03887252,5.005959987640381,0.9966732941201556,-0.0002915210256652798,0.0009177192146468247,0.0814948930584768,0.001008233,-0.0051030647,0.0033498656,-0.0042377217,-0.0046340297,7.3293086e-05,0,0,0,0,0,0,0,0,0,0,0,0,0,0,0,0,0,0,0,0,0,0,0,0,0,0,0,0
288,5.76,-0.0032984195,0.038771927,5.006025314331055,0.9966732633314486,-0.00032955677161924685,0.0008676611317156761,0.08149567299394347,0.0013485869,-0.004953939,0.0032481728,-0.004147339,-0.004755386,6.842122e-05,0,0,0,0,0,0,0,0,0,0,0,0,0,0,0,0,0,0,0,0,0,0,0,0,0,0,0,0
289,5.78,-0.0032682195,0.038674448,5.00609016418457,0.9966732384858943,-0.0003658314193493906,0.0008157911321529434,0.08149635782193693,0.0016679075,-0.0047918116,0.0031483376,-0.0038956963,-0.0050062137,5.734655e-05,0,0,0,0,0,0,0,0,0,0,0,0,0,0,0,0,0,0,0,0,0,0,0,0,0,0,0,0
290,5.8,-0.0032318493,0.038580336,5.00615119934082,0.9966732231672211,-0.00039836777156436367,0.0007616919172044507,0.081496916199355,0.0019654534,-0.004617764,0.003054036,-0.0034406197,-0.0052325707,4.5922112e-05,0,0,0,0,0,0,0,0,0,0,0,0,0,0,0,0,0,0,0,0,0,0,0,0,0,0,0,0
291,5.82,-0.0031897512,0.038489807,5.00621223449707,0.9966732124413404,-0.00042557654982013185,0.0007065064196985068,0.08149740692278336,0.00224065,-0.004433621,0.0029665767,-0.002873385,-0.0052903476,4.0503983e-05,0,0,0,0,0,0,0,0,0,0,0,0,0,0,0,0,0,0,0,0,0,0,0,0,0,0,0,0
292,5.84,-0.0031423727,0.03840304,5.006269931793213,0.9966732028198806,-0.0004472640285669661,0.0006522390675838325,0.08149786082989487,0.0024935806,-0.0042415587,0.0028837335,-0.0023519432,-0.005142065,4.3501244e-05,0,0,0,0,0,0,0,0,0,0,0,0,0,0,0,0,0,0,0,0,0,0,0,0,0,0,0,0
293,5.86,-0.003090152,0.038320184,5.006327152252197,0.9966731857863241,-0.00046469591543971394,0.000600498155285905,0.08149836927332356,0.0027250682,-0.004043503,0.0028014267,-0.001998021,-0.00487776,5.1906158e-05,0,0,0,0,0,0,0,0,0,0,0,0,0,0,0,0,0,0,0,0,0,0,0,0,0,0,0,0
294,5.88,-0.003033506,0.03824134,5.006381988525391,0.9966731589373542,-0.0004797287732125054,0.000551538866440222,0.08149895655171552,0.0029363001,-0.0038407156,0.0027163278,-0.0018221182,-0.0046528243,5.95408e-05,0,0,0,0,0,0,0,0,0,0,0,0,0,0,0,0,0,0,0,0,0,0,0,0,0,0,0,0
295,5.9,-0.0029728292,0.03816659,5.006435394287109,0.9966731238792829,-0.0004936445972787609,0.0005042238310737603,0.08149960864968134,0.0031282578,-0.0036338058,0.0026278244,-0.0017277747,-0.0045808842,6.155427e-05,0,0,0,0,0,0,0,0,0,0,0,0,0,0,0,0,0,0,0,0,0,0,0,0,0,0,0,0
296,5.92,-0.0029085025,0.038096014,5.0064873695373535,0.9966730877393706,-0.0005064527546249554,0.00045691939924908336,0.08150025095874729,0.003301336,-0.0034231336,0.0025384699,-0.0015796504,-0.004660065,5.7147452e-05,0,0,0,0,0,0,0,0,0,0,0,0,0,0,0,0,0,0,0,0,0,0,0,0,0,0,0,0
297,5.94,-0.002840904,0.038029682,5.006536960601807,0.9966730564393562,-0.0005170477471056991,0.00040868447807613335,0.0815008233483348,0.0034553916,-0.0032093087,0.0024519525,-0.0012939853,-0.0047796257,5.0093142e-05,0,0,0,0,0,0,0,0,0,0,0,0,0,0,0,0,0,0,0,0,0,0,0,0,0,0,0,0
298,5.96,-0.002770417,0.037967652,5.006586074829102,0.996673031095313,-0.0005240766243802834,0.00035992989921571593,0.08150131828038587,0.0035901791,-0.0029934617,0.002370888,-0.0008861686,-0.0048007383,4.5961428e-05,0,0,0,0,0,0,0,0,0,0,0,0,0,0,0,0,0,0,0,0,0,0,0,0,0,0,0,0
299,5.98,-0.0026974261,0.037909947,5.006631851196289,0.9966730066531149,-0.0005268842241608221,0.00031215212325544296,0.08150179607288642,0.0037058545,-0.002777131,0.00229478,-0.00045678444,-0.004647026,4.8138634e-05,0,0,0,0,0,0,0,0,0,0,0,0,0,0,0,0,0,0,0,0,0,0,0,0,0,0,0,0
300,6.0,-0.002622306,0.037856564,5.006677627563477,0.9966729751716806,-0.0005259780763776811,0.00026698968676982235,0.08150234736497397,0.0038032224,-0.0025618633,0.0022208225,-0.00011953971,-0.0043533593,5.5647513e-05,0,0,0,0,0,0,0,0,0,0,0,0,0,0,0,0,0,0,0,0,0,0,0,0,0,0,0,0
301,6.0200000000000005,-0.0025454115,0.037807465,5.006721019744873,0.9966729360442314,-0.0005226630079049636,0.00022517840007175104,0.08150297341226204,0.0038835716,-0.0023488065,0.0021455921,7.5289805e-05,-0.0040408634,6.402361e-05,0,0,0,0,0,0,0,0,0,0,0,0,0,0,0,0,0,0,0,0,0,0,0,0,0,0,0,0
302,6.04,-0.0024670686,0.037762597,5.006762981414795,0.9966728908965361,-0.0005182209583881604,0.00018615865743072224,0.08150365233493567,0.003948211,-0.002138568,0.0020672528,0.00016089517,-0.0038325381,6.8345274e-05,0,0,0,0,0,0,0,0,0,0,0,0,0,0,0,0,0,0,0,0,0,0,0,0,0,0,0,0
303,6.0600000000000005,-0.0023875823,0.037721906,5.0068039894104,0.9966728412047269,-0.0005132172957102917,0.00014853260994112486,0.08150436890724638,0.0039980332,-0.0019313908,0.001986844,0.00022622064,-0.0037725626,6.654927e-05,0,0,0,0,0,0,0,0,0,0,0,0,0,0,0,0,0,0,0,0,0,0,0,0,0,0,0,0
304,6.08,-0.0023072446,0.03768532,5.006842136383057,0.9966727953787251,-0.0005072946306084856,0.00011106247417490179,0.08150502603669561,0.004033369,-0.0017275003,0.0019072504,0.00035900413,-0.003801075,6.0728973e-05,0,0,0,0,0,0,0,0,0,0,0,0,0,0,0,0,0,0,0,0,0,0,0,0,0,0,0,0
305,6.1000000000000005,-0.0022263448,0.03765278,5.006880283355713,0.9966727532999108,-0.0004995366460992196,7.35018910509271e-05,0.08150563103360745,0.004054242,-0.0015274045,0.0018315621,0.00059082283,-0.0037997544,5.548638e-05,0,0,0,0,0,0,0,0,0,0,0,0,0,0,0,0,0,0,0,0,0,0,0,0,0,0,0,0
306,6.12,-0.0021451712,0.037624195,5.00691556930542,0.9966727158210076,-0.0004891741734533786,3.674616406860783e-05,0.08150617704398015,0.004060809,-0.0013319601,0.0017608686,0.00088048127,-0.0036713746,5.4612614e-05,0,0,0,0,0,0,0,0,0,0,0,0,0,0,0,0,0,0,0,0,0,0,0,0,0,0,0,0
307,6.140000000000001,-0.0020640043,0.03759946,5.0069499015808105,0.9966726750070557,-0.0004761413395141364,2.2188524725140724e-06,0.0815067615525327,0.0040537133,-0.0011421796,0.0016938015,0.0011450995,-0.0034032853,5.8663114e-05,0,0,0,0,0,0,0,0,0,0,0,0,0,0,0,0,0,0,0,0,0,0,0,0,0,0,0,0
308,6.16,-0.0019831068,0.03757846,5.006984233856201,0.9966726294111907,-0.0004611518980745633,-2.9064251044974717e-05,0.08150740013507701,0.004034103,-0.00095892034,0.0016275187,0.0013143342,-0.0030740465,6.485021e-05,0,0,0,0,0,0,0,0,0,0,0,0,0,0,0,0,0,0,0,0,0,0,0,0,0,0,0,0
309,6.18,-0.0019027155,0.03756106,5.007015228271484,0.9966725793681532,-0.00044528361992961067,-5.714397152907052e-05,0.08150808544369502,0.004003325,-0.00078266056,0.0015593359,0.0013750291,-0.0027971212,6.89256e-05,0,0,0,0,0,0,0,0,0,0,0,0,0,0,0,0,0,0,0,0,0,0,0,0,0,0,0,0
310,6.2,-0.0018230414,0.037547104,5.007045745849609,0.9966725253270202,-0.00042933556375532214,-8.302151907542334e-05,0.08150880956474156,0.003962496,-0.0006134991,0.0014889189,0.0013773459,-0.0026431468,6.80872e-05,0,0,0,0,0,0,0,0,0,0,0,0,0,0,0,0,0,0,0,0,0,0,0,0,0,0,0,0
311,6.22,-0.0017442787,0.037536465,5.007075786590576,0.9966724758231675,-0.0004134258254951543,-0.00010795020501286605,0.08150946793077166,0.003912256,-0.0004513698,0.001418161,0.0013946444,-0.0025996352,6.2897016e-05,0,0,0,0,0,0,0,0,0,0,0,0,0,0,0,0,0,0,0,0,0,0,0,0,0,0,0,0
312,6.24,-0.0016666128,0.037529,5.0071024894714355,0.9966724286300179,-0.00039705716332019155,-0.00013261536461567976,0.08151008997367264,0.0038528338,-0.000296308,0.001349711,0.0014786999,-0.002581017,5.64191e-05,0,0,0,0,0,0,0,0,0,0,0,0,0,0,0,0,0,0,0,0,0,0,0,0,0,0,0,0
313,6.26,-0.0015902261,0.037524562,5.007129192352295,0.9966723882852024,-0.0003795499876951939,-0.00015669713398538886,0.08151062395593589,0.0037843783,-0.00014860128,0.0012856002,0.0016270018,-0.0024872792,5.230572e-05,0,0,0,0,0,0,0,0,0,0,0,0,0,0,0,0,0,0,0,0,0,0,0,0,0,0,0,0
314,6.28,-0.0015152955,0.037522998,5.007154941558838,0.9966723465398014,-0.00036056326337546347,-0.0001791324298027525,0.08151117437843525,0.0037073295,-8.737941e-06,0.001225676,0.001790481,-0.0022750897,5.23686e-05,0,0,0,0,0,0,0,0,0,0,0,0,0,0,0,0,0,0,0,0,0,0,0,0,0,0,0,0
315,6.3,-0.0014419846,0.037524145,5.007177829742432,0.99667230594018,-0.00034034508805842333,-0.00019888402880434525,0.08151171193299914,0.0036225691,0.00012279356,0.0011678429,0.0019063577,-0.001983639,5.5375036e-05,0,0,0,0,0,0,0,0,0,0,0,0,0,0,0,0,0,0,0,0,0,0,0,0,0,0,0,0
316,6.32,-0.0013704365,0.037527848,5.007200717926025,0.996672260949751,-0.000319610378000999,-0.0002156349253741033,0.08151230339094015,0.0035312606,0.00024571634,0.0011098713,0.0019396967,-0.0017007797,5.8122092e-05,0,0,0,0,0,0,0,0,0,0,0,0,0,0,0,0,0,0,0,0,0,0,0,0,0,0,0,0
317,6.34,-0.0013007708,0.03753392,5.007223606109619,0.9966722150126399,-0.0002991139530548512,-0.00022995328144562866,0.08151290372775012,0.003434511,0.0003600532,0.0010505241,0.0019036862,-0.0015052017,5.7678008e-05,0,0,0,0,0,0,0,0,0,0,0,0,0,0,0,0,0,0,0,0,0,0,0,0,0,0,0,0
318,6.36,-0.0012330876,0.037542187,5.007242679595947,0.9966721709650643,-0.00027924013352203467,-0.00024290423285693624,0.081513475243466,0.003333079,0.00046604293,0.0009902709,0.0018471023,-0.001416729,5.3179494e-05,0,0,0,0,0,0,0,0,0,0,0,0,0,0,0,0,0,0,0,0,0,0,0,0,0,0,0,0
319,6.38,-0.0011674768,0.0375525,5.007261753082275,0.9966721311667299,-0.0002598588399050515,-0.0002553553844546633,0.0815139878952046,0.003227313,0.00056395296,0.000931329,0.0018208729,-0.0013855908,4.662429e-05,0,0,0,0,0,0,0,0,0,0,0,0,0,0,0,0,0,0,0,0,0,0,0,0,0,0,0,0
320,6.4,-0.0011040233,0.03756469,5.0072808265686035,0.9966720963457775,-0.00024051166125042781,-0.0002674379989684624,0.08151443428479895,0.003117348,0.0006539151,0.0008759205,0.0018474784,-0.0013289563,4.1058134e-05,0,0,0,0,0,0,0,0,0,0,0,0,0,0,0,0,0,0,0,0,0,0,0,0,0,0,0,0
321,6.42,-0.0010428093,0.037578605,5.007297515869141,0.9966720643377018,-0.00022076414561267042,-0.0002785259498749961,0.08151484438622955,0.0030034217,0.0007358811,0.00082465337,0.0019122473,-0.0011873716,3.8507576e-05,0,0,0,0,0,0,0,0,0,0,0,0,0,0,0,0,0,0,0,0,0,0,0,0,0,0,0,0
322,6.44,-0.000983909,0.037594073,5.007312774658203,0.9966720317718716,-0.00020050746772476048,-0.0002877153810882377,0.08151526299009426,0.002886096,0.000809706,0.00077647856,0.0019715875,-0.0009635914,3.8896644e-05,0,0,0,0,0,0,0,0,0,0,0,0,0,0,0,0,0,0,0,0,0,0,0,0,0,0,0,0
323,6.46,-0.0009273823,0.037610937,5.007328033447266,0.9966719987721987,-0.00018007120328418378,-0.000294470251176312,0.08151569005451265,0.002766239,0.00087530364,0.0007295697,0.0019820048,-0.0007172817,4.0062536e-05,0,0,0,0,0,0,0,0,0,0,0,0,0,0,0,0,0,0,0,0,0,0,0,0,0,0,0,0
324,6.48,-0.00087327015,0.03762903,5.007343292236328,0.996671967077065,-0.000160033365906102,-0.00029898050595280414,0.08151610296569058,0.002644792,0.0009327763,0.0006822627,0.0019286319,-0.0005203511,3.959356e-05,0,0,0,0,0,0,0,0,0,0,0,0,0,0,0,0,0,0,0,0,0,0,0,0,0,0,0,0
325,6.5,-0.0008215964,0.03764819,5.007355690002441,0.9966719364749644,-0.00014088684061930383,-0.00030201306770079463,0.08151650128808142,0.0025224932,0.0009824347,0.0006341164,0.0018344385,-0.0004113869,3.6080157e-05,0,0,0,0,0,0,0,0,0,0,0,0,0,0,0,0,0,0,0,0,0,0,0,0,0,0,0,0
326,6.5200000000000005,-0.0007723736,0.037668273,5.007367134094238,0.9966719104224671,-0.00012276133919778703,-0.00030442247900009707,0.08151684017083796,0.0023997352,0.0010246976,0.00058649946,0.0017423315,-0.0003727828,3.0210082e-05,0,0,0,0,0,0,0,0,0,0,0,0,0,0,0,0,0,0,0,0,0,0,0,0,0,0,0,0
327,6.54,-0.0007256093,0.03768913,5.007378578186035,0.9966718900983557,-0.00010541693673982692,-0.00030661665080935476,0.0815171047159438,0.00227664,0.0010599457,0.0005414742,0.0016865784,-0.00034487306,2.4098967e-05,0,0,0,0,0,0,0,0,0,0,0,0,0,0,0,0,0,0,0,0,0,0,0,0,0,0,0,0
328,6.5600000000000005,-0.0006813098,0.037710626,5.007390022277832,0.9966718719957494,-8.845665628344941e-05,-0.00030836698090491764,0.08151733961381201,0.0021532928,0.0010884245,0.00050024927,0.0016713687,-0.0002700459,1.989651e-05,0,0,0,0,0,0,0,0,0,0,0,0,0,0,0,0,0,0,0,0,0,0,0,0,0,0,0,0
329,6.58,-0.0006394777,0.03773262,5.007400035858154,0.9966718587705765,-7.162183117715547e-05,-0.00030903625809788947,0.08151751530627198,0.0020299617,0.0011102549,0.00046242416,0.0016744987,-0.00012694544,1.837168e-05,0,0,0,0,0,0,0,0,0,0,0,0,0,0,0,0,0,0,0,0,0,0,0,0,0,0,0,0
330,6.6000000000000005,-0.00060010777,0.03775499,5.0074076652526855,0.9966718457503505,-5.494197653269442e-05,-0.00030804124870019965,0.08151769121214035,0.0019071766,0.001125524,0.00042649926,0.0016618319,5.6893994e-05,1.8349408e-05,0,0,0,0,0,0,0,0,0,0,0,0,0,0,0,0,0,0,0,0,0,0,0,0,0,0,0,0
331,6.62,-0.0005631824,0.0377776,5.007415294647217,0.996671831758501,-3.873002610306832e-05,-0.00030527077099250303,0.08151788201919641,0.0017856184,0.001134395,0.00039115845,0.0016070079,0.00022493667,1.793676e-05,0,0,0,0,0,0,0,0,0,0,0,0,0,0,0,0,0,0,0,0,0,0,0,0,0,0,0,0
332,6.640000000000001,-0.0005286706,0.037800327,5.007422924041748,0.996671819109683,-2.340422213713667e-05,-0.00030116752413189806,0.08151805777225177,0.0016658995,0.001137175,0.00035574136,0.0015088527,0.00033127575,1.5712394e-05,0,0,0,0,0,0,0,0,0,0,0,0,0,0,0,0,0,0,0,0,0,0,0,0,0,0,0,0
333,6.66,-0.0004965315,0.037823047,5.007430553436279,0.996671808845413,-9.222869108828804e-06,-0.0002964409326726849,0.08151820343042651,0.0015483882,0.0011342966,0.00032059845,0.0013946237,0.0003698305,1.1512558e-05,0,0,0,0,0,0,0,0,0,0,0,0,0,0,0,0,0,0,0,0,0,0,0,0,0,0,0,0
334,6.68,-0.0004667195,0.03784566,5.0074381828308105,0.9966718026745504,3.857956579898836e-06,-0.0002916255801159159,0.08151829667687725,0.0014331875,0.00112622,0.00028690518,0.0012953765,0.00037429738,6.4979067e-06,0,0,0,0,0,0,0,0,0,0,0,0,0,0,0,0,0,0,0,0,0,0,0,0,0,0,0,0
335,6.7,-0.00043918865,0.037868056,5.007441997528076,0.9966717993930045,1.6096585307586628e-05,-0.000286794250466609,0.08151835244083767,0.0013202705,0.0011133361,0.00025572476,0.0012287169,0.00039487067,2.3714301e-06,0,0,0,0,0,0,0,0,0,0,0,0,0,0,0,0,0,0,0,0,0,0,0,0,0,0,0,0
336,6.72,-0.00041389314,0.03789015,5.007445812225342,0.9966718003356984,2.7794774144801383e-05,-0.0002815696038046396,0.08151835597953765,0.0012096745,0.0010959257,0.00022768675,0.0011923141,0.00046493724,2.020826e-07,0,0,0,0,0,0,0,0,0,0,0,0,0,0,0,0,0,0,0,0,0,0,0,0,0,0,0,0
337,6.74,-0.00039078455,0.037911862,5.007449626922607,0.996671801398374,3.911662270702697e-05,-0.0002754271724133851,0.0815183593252637,0.0011016313,0.0010741851,0.00020246922,0.0011643071,0.00058084546,-2.3938483e-07,0,0,0,0,0,0,0,0,0,0,0,0,0,0,0,0,0,0,0,0,0,0,0,0,0,0,0,0
338,6.76,-0.00036980797,0.037933096,5.007453441619873,0.9966718032688713,4.9981218724316085e-05,-0.00026808159341532007,0.08151835500618,0.0009965495,0.0010483016,0.00017884433,0.0011162648,0.00070443185,-2.8130458e-07,0,0,0,0,0,0,0,0,0,0,0,0,0,0,0,0,0,0,0,0,0,0,0,0,0,0,0,0
339,6.78,-0.0003508997,0.03795377,5.007457256317139,0.9966718047020618,6.010887933958693e-05,-0.00025970425825926985,0.08151835776410132,0.00089486677,0.0010185357,0.00015559136,0.0010330912,0.000792447,-1.241529e-06,0,0,0,0,0,0,0,0,0,0,0,0,0,0,0,0,0,0,0,0,0,0,0,0,0,0,0,0
340,6.8,-0.00033398843,0.037973817,5.007461071014404,0.996671806809248,6.920530002203356e-05,-0.00025080356680808063,0.08151835265623647,0.00079687865,0.0009852551,0.00013231691,0.0009219108,0.0008238123,-3.8169746e-06,0,0,0,0,0,0,0,0,0,0,0,0,0,0,0,0,0,0,0,0,0,0,0,0,0,0,0,0
341,6.82,-0.0003189992,0.03799317,5.00746488571167,0.9966718143430636,7.715609176110325e-05,-0.00024191668697397717,0.08151828026497886,0.00070265663,0.00094889983,0.0001096147,0.00080965436,0.00081336254,-7.4600644e-06,0,0,0,0,0,0,0,0,0,0,0,0,0,0,0,0,0,0,0,0,0,0,0,0,0,0,0,0
342,6.84,-0.0003058575,0.038011763,5.007467269897461,0.9966718223998928,8.411026001173498e-05,-0.0002332756664562805,0.0815182000660233,0.00061210775,0.00090989465,8.845505e-05,0.0007227642,0.00079709286,-1.09341645e-05,0,0,0,0,0,0,0,0,0,0,0,0,0,0,0,0,0,0,0,0,0,0,0,0,0,0,0,0
343,6.86,-0.000294491,0.038029555,5.007467269897461,0.9966718340402083,9.036928231058259e-05,-0.0002247410899317886,0.08151807502488445,0.00052512094,0.00086857256,6.9589005e-05,0.0006690487,0.0008082271,-1.3100892e-05,0,0,0,0,0,0,0,0,0,0,0,0,0,0,0,0,0,0,0,0,0,0,0,0,0,0,0,0
344,6.88,-0.00028482874,0.038046498,5.007467269897461,0.9966718450811397,9.618256263192687e-05,-0.000215936609432672,0.08151795718031542,0.00044169737,0.00082515954,5.326449e-05,0.000635173,0.0008580463,-1.3599999e-05,0,0,0,0,0,0,0,0,0,0,0,0,0,0,0,0,0,0,0,0,0,0,0,0,0,0,0,0
345,6.9,-0.00027679815,0.03806255,5.007467269897461,0.9966718568007775,0.00010160330999388921,-0.00020653377190099674,0.08151783168030724,0.00036199234,0.000779827,3.8949845e-05,0.00059598277,0.000929417,-1.3035393e-05,0,0,0,0,0,0,0,0,0,0,0,0,0,0,0,0,0,0,0,0,0,0,0,0,0,0,0,0
346,6.92,-0.00027032246,0.038077682,5.007467269897461,0.9966718680036478,0.00010646113830835298,-0.0001964906065184977,0.08151771333634636,0.00028624415,0.0007327728,2.5708074e-05,0.00053134497,0.000989262,-1.2646326e-05,0,0,0,0,0,0,0,0,0,0,0,0,0,0,0,0,0,0,0,0,0,0,0,0,0,0,0,0
347,6.94,-0.00026532047,0.038091857,5.007467269897461,0.996671879264742,0.00011050568195708805,-0.0001860823552840356,0.08151759469426871,0.0002146428,0.0006842781,1.2962215e-05,0.00044099873,0.0010125252,-1.3192592e-05,0,0,0,0,0,0,0,0,0,0,0,0,0,0,0,0,0,0,0,0,0,0,0,0,0,0,0,0
348,6.96,-0.0002617086,0.03810505,5.007467269897461,0.9966718911319961,0.00011358442145311476,-0.00017572797128247823,0.08151746834654373,0.00014723156,0.00063469814,8.5770176e-07,0.00034142545,0.0009953429,-1.4807813e-05,0,0,0,0,0,0,0,0,0,0,0,0,0,0,0,0,0,0,0,0,0,0,0,0,0,0,0,0
349,6.98,-0.0002594039,0.03811724,5.007467269897461,0.996671906588965,0.00011574836332456098,-0.00016574554862029098,0.08151729722609038,8.389689e-05,0.00058440206,-9.985575e-06,0.00025652416,0.000957587,-1.6918213e-05,0,0,0,0,0,0,0,0,0,0,0,0,0,0,0,0,0,0,0,0,0,0,0,0,0,0,0,0
350,7.0,-0.00025832662,0.038128424,5.007467269897461,0.996671921968815,0.00011723294380681072,-0.00015617473942479,0.0815171259605957,2.4450108e-05,0.0005336977,-1.9002566e-05,0.00020029831,0.0009295147,-1.8460074e-05,0,0,0,0,0,0,0,0,0,0,0,0,0,0,0,0,0,0,0,0,0,0,0,0,0,0,0,0
351,7.0200000000000005,-0.00025840077,0.038138587,5.007467269897461,0.9966719378939081,0.00011829719392122253,-0.00014678157041838762,0.08151694716895592,-3.1253774e-05,0.0004827939,-2.6116973e-05,0.00016805288,0.0009310796,-1.884652e-05,0,0,0,0,0,0,0,0,0,0,0,0,0,0,0,0,0,0,0,0,0,0,0,0,0,0,0,0
352,7.04,-0.0002595519,0.038147733,5.007467269897461,0.9966719537905764,0.00011907328458171773,-0.00013724987550411141,0.08151676828297265,-8.323973e-05,0.0004318255,-3.186763e-05,0.00014159472,0.0009597061,-1.8228204e-05,0,0,0,0,0,0,0,0,0,0,0,0,0,0,0,0,0,0,0,0,0,0,0,0,0,0,0,0
353,7.0600000000000005,-0.0002617049,0.03815586,5.007467269897461,0.9966719702901367,0.0001195118329107047,-0.00012742145349200484,0.08151658186327572,-0.00013142727,0.00038091643,-3.7177208e-05,0.0001032197,0.0009908106,-1.7319071e-05,0,0,0,0,0,0,0,0,0,0,0,0,0,0,0,0,0,0,0,0,0,0,0,0,0,0,0,0
354,7.08,-0.00026478287,0.03816297,5.007467269897461,0.9966719867827278,0.00011944828930870884,-0.00011741631618265404,0.08151639533299294,-0.00017572561,0.00033023304,-4.2789583e-05,4.3505202e-05,0.0009998258,-1.6912974e-05,0,0,0,0,0,0,0,0,0,0,0,0,0,0,0,0,0,0,0,0,0,0,0,0,0,0,0,0
355,7.1000000000000005,-0.00026870775,0.038169067,5.007467269897461,0.9966720026428515,0.0001187057457205699,-0.00010753300624141583,0.08151621613817939,-0.00021613255,0.0002800058,-4.8781043e-05,-3.2022363e-05,0.0009772473,-1.737147e-05,0,0,0,0,0,0,0,0,0,0,0,0,0,0,0,0,0,0,0,0,0,0,0,0,0,0,0,0
356,7.12,-0.00027340284,0.03817417,5.007467269897461,0.9966720184528429,0.00011724163497268977,-9.806297136621045e-05,0.08151603689574448,-0.00025277186,0.0002305053,-5.4636603e-05,-0.00010336028,0.0009316176,-1.8245239e-05,0,0,0,0,0,0,0,0,0,0,0,0,0,0,0,0,0,0,0,0,0,0,0,0,0,0,0,0
357,7.140000000000001,-0.00027879476,0.03817829,5.007467269897461,0.9966720341897348,0.00011519719968810953,-8.913399911185173e-05,0.08151585765255356,-0.00028585523,0.00018197835,-5.9590937e-05,-0.0001547281,0.00088228734,-1.8866176e-05,0,0,0,0,0,0,0,0,0,0,0,0,0,0,0,0,0,0,0,0,0,0,0,0,0,0,0,0
358,7.16,-0.00028481465,0.03818145,5.007467269897461,0.9966720498440411,0.00011279663553499524,-8.065778704016611e-05,0.08151567843622044,-0.0003156016,0.00013459766,-6.3238745e-05,-0.00018165901,0.00085048185,-1.8705046e-05,0,0,0,0,0,0,0,0,0,0,0,0,0,0,0,0,0,0,0,0,0,0,0,0,0,0,0,0
359,7.18,-0.00029139742,0.038183678,5.007467269897461,0.9966720654212444,0.00011023249426642667,-7.23878986080707e-05,0.0815154992485491,-0.0003421562,8.845534e-05,-6.5758824e-05,-0.00019315185,0.00084355345,-1.753915e-05,0,0,0,0,0,0,0,0,0,0,0,0,0,0,0,0,0,0,0,0,0,0,0,0,0,0,0,0
360,7.2,-0.00029847978,0.038184997,5.007467269897461,0.9966720815415169,0.00010755491599822919,-6.411576818469154e-05,0.08151531265233754,-0.00036556393,4.3598073e-05,-6.769478e-05,-0.00020733454,0.0008499113,-1.5676342e-05,0,0,0,0,0,0,0,0,0,0,0,0,0,0,0,0,0,0,0,0,0,0,0,0,0,0,0,0
361,7.22,-0.00030599875,0.03818543,5.007467269897461,0.9966720933581249,0.00010465933653136217,-5.581569623735743e-05,0.08151517804779923,-0.00038581731,8.552854e-08,-6.964027e-05,-0.00023755855,0.0008493407,-1.3868553e-05,0,0,0,0,0,0,0,0,0,0,0,0,0,0,0,0,0,0,0,0,0,0,0,0,0,0,0,0
362,7.24,-0.0003138914,0.03818501,5.007467269897461,0.99667210451914,0.00010139249863127908,-4.765505292128227e-05,0.0815150508921233,-0.0004029384,-4.1970936e-05,-7.193864e-05,-0.00028255227,0.0008264851,-1.266205e-05,0,0,0,0,0,0,0,0,0,0,0,0,0,0,0,0,0,0,0,0,0,0,0,0,0,0,0,0
363,7.26,-0.00032209596,0.038183764,5.007467269897461,0.996672115019423,9.767897623307399e-05,-3.988698185197329e-05,0.08151493121236235,-0.00041703778,-8.2417406e-05,-7.432997e-05,-0.00033052935,0.00077878515,-1.2153773e-05,0,0,0,0,0,0,0,0,0,0,0,0,0,0,0,0,0,0,0,0,0,0,0,0,0,0,0,0
364,7.28,-0.00033055394,0.038181726,5.007467269897461,0.9966721248493521,9.357677166926196e-05,-3.270038192161275e-05,0.08151481903525538,-0.00042832014,-0.000121100704,-7.628977e-05,-0.00036738833,0.00072027685,-1.1904876e-05,0,0,0,0,0,0,0,0,0,0,0,0,0,0,0,0,0,0,0,0,0,0,0,0,0,0,0,0
365,7.3,-0.00033921146,0.03817894,5.007467269897461,0.9966721346093605,8.924397655118487e-05,-2.6087105555869854e-05,0.08151470694418468,-0.00043702847,-0.00015791302,-7.728636e-05,-0.0003853695,0.00067125645,-1.1285249e-05,0,0,0,0,0,0,0,0,0,0,0,0,0,0,0,0,0,0,0,0,0,0,0,0,0,0,0,0
366,7.32,-0.00034801915,0.038175438,5.007467269897461,0.9966721455126628,8.48454825247782e-05,-1.9875434991199584e-05,0.0815145800786401,-0.00044336577,-0.0001928101,-7.71743e-05,-0.0003882386,0.00064194534,-9.954297e-06,0,0,0,0,0,0,0,0,0,0,0,0,0,0,0,0,0,0,0,0,0,0,0,0,0,0,0,0
367,7.34,-0.00035693098,0.03817125,5.007467269897461,0.996672153311492,8.046997036957006e-05,-1.3865380860272858e-05,0.08151449040366307,-0.0004474543,-0.00022579443,-7.634222e-05,-0.00038590727,0.00062984915,-8.015509e-06,0,0,0,0,0,0,0,0,0,0,0,0,0,0,0,0,0,0,0,0,0,0,0,0,0,0,0,0
368,7.36,-0.00036590258,0.03816642,5.007467269897461,0.9966721586200757,7.610243598281155e-05,-7.942675840235887e-06,0.08151443048277879,-0.0004493479,-0.0002568801,-7.5305106e-05,-0.00038996647,0.00062146987,-5.8540213e-06,0,0,0,0,0,0,0,0,0,0,0,0,0,0,0,0,0,0,0,0,0,0,0,0,0,0,0,0
369,7.38,-0.00037489037,0.038160983,5.007467269897461,0.9966721638762215,7.164481712637093e-05,-2.1541269952430536e-06,0.08151437061445183,-0.00044908503,-0.000286058,-7.4358584e-05,-0.0004061708,0.0006025269,-4.0030022e-06,0,0,0,0,0,0,0,0,0,0,0,0,0,0,0,0,0,0,0,0,0,0,0,0,0,0,0,0
370,7.4,-0.000383852,0.03815499,5.007467269897461,0.9966721678724023,6.700281118534073e-05,3.3416261048899535e-06,0.08151432566109447,-0.00044674746,-0.00031328146,-7.3595635e-05,-0.00043036308,0.0005655863,-2.7375493e-06,0,0,0,0,0,0,0,0,0,0,0,0,0,0,0,0,0,0,0,0,0,0,0,0,0,0,0,0
371,7.42,-0.0003927473,0.038148466,5.007467269897461,0.9966721681835408,6.215367212801997e-05,8.367735771817958e-06,0.08151432533746494,-0.00044248748,-0.00033848366,-7.272778e-05,-0.0004534143,0.0005134685,-2.0000239e-06,0,0,0,0,0,0,0,0,0,0,0,0,0,0,0,0,0,0,0,0,0,0,0,0,0,0,0,0
372,7.44,-0.00040153996,0.038141463,5.007467269897461,0.9966721684545786,5.716706308680068e-05,1.2838189868632845e-05,0.0815143250917042,-0.00043651392,-0.0003616093,-7.134972e-05,-0.00046546155,0.00045955734,-1.3921875e-06,0,0,0,0,0,0,0,0,0,0,0,0,0,0,0,0,0,0,0,0,0,0,0,0,0,0,0,0
373,7.46,-0.00041019783,0.038134016,5.007467269897461,0.9966721686839177,5.217053974389817e-05,1.6820354704829343e-05,0.08151432491413178,-0.00042904008,-0.00038264308,-6.9177724e-05,-0.00046329334,0.0004187042,-4.0314316e-07,0,0,0,0,0,0,0,0,0,0,0,0,0,0,0,0,0,0,0,0,0,0,0,0,0,0,0,0
374,7.48,-0.00041869257,0.038126167,5.007467269897461,0.9966721688693417,4.7281729309142304e-05,2.0496520254352336e-05,0.08151432478781345,-0.0004202261,-0.00040161554,-6.62547e-05,-0.0004497626,0.00039669633,1.0299887e-06,0,0,0,0,0,0,0,0,0,0,0,0,0,0,0,0,0,0,0,0,0,0,0,0,0,0,0,0
375,7.5,-0.00042699842,0.038117964,5.007467269897461,0.9966721690109179,4.2553179248862475e-05,2.402306668130474e-05,0.08151432469935256,-0.0004101569,-0.00041858843,-6.293591e-05,-0.00043623187,0.00038381762,2.7369092e-06,0,0,0,0,0,0,0,0,0,0,0,0,0,0,0,0,0,0,0,0,0,0,0,0,0,0,0,0
376,7.5200000000000005,-0.00043509074,0.03810944,5.007467269897461,0.9966721648628105,3.7931227707215246e-05,2.7426326724105525e-05,0.08151437662582528,-0.0003988783,-0.00043362175,-5.9602815e-05,-0.0004312108,0.00036898267,4.463479e-06,0,0,0,0,0,0,0,0,0,0,0,0,0,0,0,0,0,0,0,0,0,0,0,0,0,0,0,0
377,7.54,-0.0004429458,0.038100634,5.007467269897461,0.9966721600768043,3.332700434114022e-05,3.0630580723166864e-05,0.0815144360154417,-0.00038644593,-0.00044674677,-5.6477147e-05,-0.00043554718,0.00034236125,5.858621e-06,0,0,0,0,0,0,0,0,0,0,0,0,0,0,0,0,0,0,0,0,0,0,0,0,0,0,0,0
378,7.5600000000000005,-0.0004505415,0.03809159,5.007467269897461,0.996672155268424,2.8691746807112357e-05,3.348757448802025e-05,0.08151449544688558,-0.00037296268,-0.0004579678,-5.348499e-05,-0.0004415627,0.00030031803,6.767756e-06,0,0,0,0,0,0,0,0,0,0,0,0,0,0,0,0,0,0,0,0,0,0,0,0,0,0,0,0
379,7.58,-0.00045785832,0.03808233,5.007467269897461,0.9966721504439562,2.405599761441744e-05,3.587515600628522e-05,0.08151455491936527,-0.00035858856,-0.00046728906,-5.034263e-05,-0.00044237784,0.00025090622,7.5576813e-06,0,0,0,0,0,0,0,0,0,0,0,0,0,0,0,0,0,0,0,0,0,0,0,0,0,0,0,0
380,7.6000000000000005,-0.00046488032,0.038072906,5.007467269897461,0.996672144998409,1.9497697473116873e-05,3.779866149865317e-05,0.08151462185014322,-0.0003435101,-0.00047473775,-4.669006e-05,-0.00043297154,0.00020887933,8.6017435e-06,0,0,0,0,0,0,0,0,0,0,0,0,0,0,0,0,0,0,0,0,0,0,0,0,0,0,0,0
381,7.62,-0.00047159506,0.038063355,5.007467269897461,0.9966721371080155,1.5110612580772582e-05,3.9388601465698356e-05,0.08151471850376849,-0.00032788512,-0.00048037412,-4.2436674e-05,-0.00041456646,0.00018212751,1.0008675e-05,0,0,0,0,0,0,0,0,0,0,0,0,0,0,0,0,0,0,0,0,0,0,0,0,0,0,0,0
382,7.640000000000001,-0.00047799273,0.038053703,5.007467269897461,0.9966721273781112,1.0941092146322306e-05,4.0795337033743916e-05,0.08151483744461947,-0.00031181096,-0.00048428343,-3.784712e-05,-0.00039358562,0.00016774896,1.1712977e-05,0,0,0,0,0,0,0,0,0,0,0,0,0,0,0,0,0,0,0,0,0,0,0,0,0,0,0,0
383,7.66,-0.0004840648,0.038043994,5.007467269897461,0.9966721176310488,6.977668627955796e-06,4.210342677401043e-05,0.08151495639117184,-0.0002953352,-0.00048655496,-3.3281405e-05,-0.0003758163,0.0001577557,1.34696775e-05,0,0,0,0,0,0,0,0,0,0,0,0,0,0,0,0,0,0,0,0,0,0,0,0,0,0,0,0
384,7.68,-0.0004898037,0.03803425,5.007467269897461,0.9966721078701806,3.171721119490282e-06,4.330459068831613e-05,0.08151507534354552,-0.00027848853,-0.00048726483,-2.8951721e-05,-0.00036464934,0.00014200779,1.49277e-05,0,0,0,0,0,0,0,0,0,0,0,0,0,0,0,0,0,0,0,0,0,0,0,0,0,0,0,0
385,7.7,-0.00049520226,0.038024504,5.007467269897461,0.9966720932432862,-5.406915319465492e-07,4.429832019397679e-05,0.0815152537100433,-0.000261324,-0.00048646808,-2.4900988e-05,-0.00036006852,0.00011468537,1.5963908e-05,0,0,0,0,0,0,0,0,0,0,0,0,0,0,0,0,0,0,0,0,0,0,0,0,0,0,0,0
386,7.72,-0.00050025515,0.038014796,5.007467269897461,0.9966720780083804,-4.185615047113937e-06,4.4972119276022865e-05,0.08151543950961766,-0.00024394038,-0.00048420293,-2.0990918e-05,-0.00035483556,7.7663164e-05,1.6617594e-05,0,0,0,0,0,0,0,0,0,0,0,0,0,0,0,0,0,0,0,0,0,0,0,0,0,0,0,0
387,7.74,-0.0005049593,0.038005143,5.007467269897461,0.9966720633849753,-7.71901998406015e-06,4.526707694797113e-05,0.08151561788543321,-0.00022647301,-0.0004805131,-1.6859123e-05,-0.0003437012,3.9548733e-05,1.711539e-05,0,0,0,0,0,0,0,0,0,0,0,0,0,0,0,0,0,0,0,0,0,0,0,0,0,0,0,0
388,7.76,-0.0005093145,0.03799558,5.007467269897461,0.9966720487658202,-1.1078133664683991e-05,4.5242772609770166e-05,0.0815157962563639,-0.0002090595,-0.00047546433,-1.2305329e-05,-0.00032488856,1.26990635e-05,1.7830645e-05,0,0,0,0,0,0,0,0,0,0,0,0,0,0,0,0,0,0,0,0,0,0,0,0,0,0,0,0
389,7.78,-0.0005133227,0.037986133,5.007467269897461,0.996672033540327,-1.420393519914719e-05,4.503843842318782e-05,0.08151598204264351,-0.00019179504,-0.0004691441,-7.396291e-06,-0.00030102223,-4.405146e-07,1.8716202e-05,0,0,0,0,0,0,0,0,0,0,0,0,0,0,0,0,0,0,0,0,0,0,0,0,0,0,0,0
390,7.8,-0.00051698746,0.037976824,5.007467269897461,0.9966720189202257,-1.7081045024738605e-05,4.477530486251773e-05,0.08151616039099903,-0.0001747201,-0.0004616518,-2.337049e-06,-0.00027702548,-4.010742e-06,1.9643676e-05,0,0,0,0,0,0,0,0,0,0,0,0,0,0,0,0,0,0,0,0,0,0,0,0,0,0,0,0
391,7.82,-0.00052031275,0.03796768,5.007467269897461,0.9966720036905458,-1.9727778325115603e-05,4.4497577144595927e-05,0.08151634615371962,-0.00015783876,-0.000453083,2.5767588e-06,-0.0002555882,-8.999254e-06,2.0475523e-05,0,0,0,0,0,0,0,0,0,0,0,0,0,0,0,0,0,0,0,0,0,0,0,0,0,0,0,0
392,7.84,-0.00052330235,0.037958708,5.007467269897461,0.996671987854897,-2.218333809616532e-05,4.414330748936207e-05,0.08151653933181868,-0.00014115768,-0.0004435235,7.1353224e-06,-0.00024119344,-2.3752737e-05,2.107419e-05,0,0,0,0,0,0,0,0,0,0,0,0,0,0,0,0,0,0,0,0,0,0,0,0,0,0,0,0
393,7.86,-0.00052596064,0.03794994,5.007467269897461,0.9966719683814644,-2.4510215527272906e-05,4.3594044002010406e-05,0.08151677705494535,-0.00012472164,-0.0004330408,1.1381557e-05,-0.00023219467,-4.915151e-05,2.1340116e-05,0,0,0,0,0,0,0,0,0,0,0,0,0,0,0,0,0,0,0,0,0,0,0,0,0,0,0,0
394,7.88,-0.0005282934,0.0379414,5.007467269897461,0.9966719483101657,-2.6731453294476575e-05,4.277701355818581e-05,0.08151702219275923,-0.00010861829,-0.00042168755,1.5558648e-05,-0.00022381535,-7.741945e-05,2.1431812e-05,0,0,0,0,0,0,0,0,0,0,0,0,0,0,0,0,0,0,0,0,0,0,0,0,0,0,0,0
395,7.9,-0.00053030835,0.0379331,5.007467269897461,0.9966719294628399,-2.8831406890743394e-05,4.1713093822934826e-05,0.08151725246589207,-9.294858e-05,-0.0004095148,1.98931e-05,-0.00021095297,-9.859596e-05,2.1683329e-05,0,0,0,0,0,0,0,0,0,0,0,0,0,0,0,0,0,0,0,0,0,0,0,0,0,0,0,0
396,7.92,-0.00053201476,0.03792504,5.007467269897461,0.9966719100152492,-3.074804360473013e-05,4.0506652383696653e-05,0.08151749014980528,-7.778785e-05,-0.00039658594,2.4537492e-05,-0.00018946675,-0.00010893156,2.2245315e-05,0,0,0,0,0,0,0,0,0,0,0,0,0,0,0,0,0,0,0,0,0,0,0,0,0,0,0,0
397,7.94,-0.0005334234,0.03791724,5.007467269897461,0.996671890573026,-3.242066942024958e-05,3.926621144394129e-05,0.08151772781827883,-6.3165935e-05,-0.00038298755,2.9336858e-05,-0.00016401909,-0.00010963261,2.2863633e-05,0,0,0,0,0,0,0,0,0,0,0,0,0,0,0,0,0,0,0,0,0,0,0,0,0,0,0,0
398,7.96,-0.000534545,0.037909724,5.007467269897461,0.996671869920041,-3.384205208734001e-05,3.806002829762773e-05,0.08151798032482661,-4.9073988e-05,-0.00036881756,3.3988403e-05,-0.00013925614,-0.00010793723,2.351994e-05,0,0,0,0,0,0,0,0,0,0,0,0,0,0,0,0,0,0,0,0,0,0,0,0,0,0,0,0
399,7.98,-0.0005353898,0.037902493,5.007467269897461,0.9966718504866168,-3.504284103462899e-05,3.686360882867804e-05,0.08151821796786776,-3.5492216e-05,-0.00035416966,3.8279937e-05,-0.00012098143,-0.000112306225,2.3893288e-05,0,0,0,0,0,0,0,0,0,0,0,0,0,0,0,0,0,0,0,0,0,0,0,0,0,0,0,0
400,8.0,-0.00053596817,0.03789556,5.007467269897461,0.9966718310592754,-3.609078871363176e-05,3.559468192144509e-05,0.08151845560009598,-2.2424114e-05,-0.00033911923,4.213755e-05,-0.00010939059,-0.00012481,2.3802899e-05,0,0,0,0,0,0,0,0,0,0,0,0,0,0,0,0,0,0,0,0,0,0,0,0,0,0,0,0
401,8.02,-0.0005362905,0.037888933,5.007467269897461,0.9966718110318837,-3.7026037273619406e-05,3.418079060427798e-05,0.08151870064697408,-9.90735e-06,-0.00032372135,4.5711447e-05,-0.00010017987,-0.00014240004,2.3601158e-05,0,0,0,0,0,0,0,0,0,0,0,0,0,0,0,0,0,0,0,0,0,0,0,0,0,0,0,0
402,8.040000000000001,-0.0005363686,0.037882615,5.007467269897461,0.9966717916197891,-3.784621639137968e-05,3.259858600344964e-05,0.08151893825606274,1.9988233e-06,-0.00030802417,4.928534e-05,-8.8458604e-05,-0.00015902822,2.34361e-05,0,0,0,0,0,0,0,0,0,0,0,0,0,0,0,0,0,0,0,0,0,0,0,0,0,0,0,0
403,8.06,-0.000536215,0.037876613,5.007467269897461,0.9966717722147864,-3.8520844653006626e-05,3.089578248814377e-05,0.081519175853488,1.3238673e-05,-0.00029208278,5.2928375e-05,-7.334649e-05,-0.00016771727,2.3451817e-05,0,0,0,0,0,0,0,0,0,0,0,0,0,0,0,0,0,0,0,0,0,0,0,0,0,0,0,0
404,8.08,-0.00053584366,0.037870932,5.007467269897461,0.9966717534216342,-3.902704391303582e-05,2.9173564333586128e-05,0.08151940601622418,2.378637e-05,-0.0002759607,5.6726385e-05,-5.5055458e-05,-0.00016553281,2.3698096e-05,0,0,0,0,0,0,0,0,0,0,0,0,0,0,0,0,0,0,0,0,0,0,0,0,0,0,0,0
405,8.1,-0.0005352681,0.037865575,5.007467269897461,0.9966717334163764,-3.934588220152792e-05,2.7522754137293203e-05,0.0815196510247388,3.3657347e-05,-0.0002597266,6.0457634e-05,-3.536244e-05,-0.00015767521,2.3988916e-05,0,0,0,0,0,0,0,0,0,0,0,0,0,0,0,0,0,0,0,0,0,0,0,0,0,0,0,0
406,8.120000000000001,-0.0005345016,0.037860543,5.007467269897461,0.9966717134132705,-3.9483019833959414e-05,2.5967175731999828e-05,0.0815198960294533,4.2891796e-05,-0.00024345102,6.390756e-05,-1.77887e-05,-0.00015108916,2.4164456e-05,0,0,0,0,0,0,0,0,0,0,0,0,0,0,0,0,0,0,0,0,0,0,0,0,0,0,0,0
407,8.14,-0.00053355645,0.037855834,5.007467269897461,0.9966716940203606,-3.9468296568123834e-05,2.4452564361223897e-05,0.08152013360459055,5.1525436e-05,-0.00022719809,6.695455e-05,-4.861072e-06,-0.00015262155,2.4049177e-05,0,0,0,0,0,0,0,0,0,0,0,0,0,0,0,0,0,0,0,0,0,0,0,0,0,0,0,0
408,8.16,-0.0005324446,0.037851453,5.007467269897461,0.9966716740235614,-3.934647371834371e-05,2.2885731756003954e-05,0.08152037860050651,5.9562743e-05,-0.00021101965,6.9691596e-05,2.7846672e-06,-0.00016271257,2.3712511e-05,0,0,0,0,0,0,0,0,0,0,0,0,0,0,0,0,0,0,0,0,0,0,0,0,0,0,0,0
409,8.18,-0.00053117814,0.03784739,5.007467269897461,0.9966716546371323,-3.9154364824218264e-05,2.121034457434768e-05,0.08152061616510095,6.697413e-05,-0.0001949532,7.228556e-05,8.164414e-06,-0.00017435226,2.3327368e-05,0,0,0,0,0,0,0,0,0,0,0,0,0,0,0,0,0,0,0,0,0,0,0,0,0,0,0,0
410,8.2,-0.0005297701,0.037843652,5.007467269897461,0.9966716352528742,-3.888751311151442e-05,1.9444296852886086e-05,0.08152085372493659,7.371996e-05,-0.00017902865,7.492725e-05,1.7261047e-05,-0.00018041664,2.3045719e-05,0,0,0,0,0,0,0,0,0,0,0,0,0,0,0,0,0,0,0,0,0,0,0,0,0,0,0,0
411,8.22,-0.000528234,0.03784023,5.007467269897461,0.996671615262895,-3.849947511808047e-05,1.7676358454860695e-05,0.08152109870817692,7.978161e-05,-0.00016328432,7.761423e-05,3.2144933e-05,-0.00017678126,2.2866248e-05,0,0,0,0,0,0,0,0,0,0,0,0,0,0,0,0,0,0,0,0,0,0,0,0,0,0,0,0
412,8.24,-0.00052658335,0.037837118,5.007467269897461,0.9966715958815419,-3.795376713740744e-05,1.5994706314743942e-05,0.08152133626616716,8.517906e-05,-0.00014777378,8.0258294e-05,4.9197006e-05,-0.00016667391,2.274311e-05,0,0,0,0,0,0,0,0,0,0,0,0,0,0,0,0,0,0,0,0,0,0,0,0,0,0,0,0
413,8.26,-0.000524831,0.037834313,5.007467269897461,0.9966715771080754,-3.725638053614874e-05,1.4435817155530036e-05,0.08152156640098901,8.9959234e-05,-0.00013255553,8.269016e-05,6.393417e-05,-0.00015570257,2.2515173e-05,0,0,0,0,0,0,0,0,0,0,0,0,0,0,0,0,0,0,0,0,0,0,0,0,0,0,0,0
414,8.28,-0.0005229888,0.03783181,5.007467269897461,0.9966715571197412,-3.6440079161228296e-05,1.2972556365689163e-05,0.08152181139022677,9.4172145e-05,-0.0001176801,8.480731e-05,7.3960015e-05,-0.00015048587,2.2009515e-05,0,0,0,0,0,0,0,0,0,0,0,0,0,0,0,0,0,0,0,0,0,0,0,0,0,0,0,0
415,8.3,-0.00052106776,0.037829604,5.007467269897461,0.9966715371306192,-3.5554559354924404e-05,1.15310692573305e-05,0.08152205638105987,9.7846045e-05,-0.0001031837,8.659546e-05,7.836162e-05,-0.00015211606,2.119077e-05,0,0,0,0,0,0,0,0,0,0,0,0,0,0,0,0,0,0,0,0,0,0,0,0,0,0,0,0
416,8.32,-0.00051907863,0.03782768,5.007467269897461,0.9966715213916951,-3.463499309595216e-05,1.0061062867168676e-05,0.08152224939215125,0.00010098087,-8.908642e-05,8.823575e-05,8.097002e-05,-0.00015589816,2.0299974e-05,0,0,0,0,0,0,0,0,0,0,0,0,0,0,0,0,0,0,0,0,0,0,0,0,0,0,0,0
417,8.34,-0.0005170322,0.03782604,5.007467269897461,0.9966715068656747,-3.368512961470906e-05,8.563562402159447e-06,0.08152242755268592,0.00010356533,-7.5401374e-05,8.989275e-05,8.390446e-05,-0.00015798482,1.9458961e-05,0,0,0,0,0,0,0,0,0,0,0,0,0,0,0,0,0,0,0,0,0,0,0,0,0,0,0,0
418,8.36,-0.0005149398,0.037824664,5.007467269897461,0.9966714917301384,-3.269777631050912e-05,7.0668790768974144e-06,0.08152261314098923,0.00010559352,-6.214164e-05,9.155452e-05,8.9088564e-05,-0.00015521343,1.8800038e-05,0,0,0,0,0,0,0,0,0,0,0,0,0,0,0,0,0,0,0,0,0,0,0,0,0,0,0,0
419,8.38,-0.0005128121,0.037823547,5.007467269897461,0.9966714771999491,-3.1649903954162894e-05,5.638302810951577e-06,0.08152279130748923,0.00010707818,-4.9324884e-05,9.326637e-05,9.688103e-05,-0.00014579076,1.831796e-05,0,0,0,0,0,0,0,0,0,0,0,0,0,0,0,0,0,0,0,0,0,0,0,0,0,0,0,0
420,8.4,-0.00051066,0.03782269,5.007467269897461,0.9966714626680903,-3.052238010983253e-05,4.324952850842544e-06,0.08152296947933574,0.0001080577,-3.697513e-05,9.4930525e-05,0.00010659712,-0.00013424882,1.7949851e-05,0,0,0,0,0,0,0,0,0,0,0,0,0,0,0,0,0,0,0,0,0,0,0,0,0,0,0,0
421,8.42,-0.00050849287,0.03782208,5.00747013092041,0.9966714475275676,-2.9308569329110082e-05,3.122750714495799e-06,0.08152315508221675,0.00010858104,-2.5121688e-05,9.639203e-05,0.0001154329,-0.00012613034,1.7514934e-05,0,0,0,0,0,0,0,0,0,0,0,0,0,0,0,0,0,0,0,0,0,0,0,0,0,0,0,0
422,8.44,-0.0005063196,0.03782169,5.007473945617676,0.9966714329928292,-2.8030923751262804e-05,1.981005264002491e-06,0.08152333326332395,0.00010868608,-1.379271e-05,9.7164506e-05,0.00011989971,-0.0001229188,1.6929367e-05,0,0,0,0,0,0,0,0,0,0,0,0,0,0,0,0,0,0,0,0,0,0,0,0,0,0,0,0
423,8.46,-0.0005041481,0.037821528,5.007477760314941,0.9966714184555636,-2.672602338656955e-05,8.620774290757243e-07,0.0815235114476255,0.000108390435,-3.005041e-06,9.67592e-05,0.000121790785,-0.000121598314,1.6177433e-05,0,0,0,0,0,0,0,0,0,0,0,0,0,0,0,0,0,0,0,0,0,0,0,0,0,0,0,0
424,8.48,-0.0005019865,0.03782157,5.007481098175049,0.9966714033079559,-2.5409146537084133e-05,-2.386656522482612e-07,0.08152369706084298,0.00010770182,7.234228e-06,9.493769e-05,0.00012262222,-0.00011882694,1.529319e-05,0,0,0,0,0,0,0,0,0,0,0,0,0,0,0,0,0,0,0,0,0,0,0,0,0,0,0,0
425,8.5,-0.0004998425,0.03782181,5.007481098175049,0.9966713930166305,-2.4079005021745007e-05,-1.2949577375923568e-06,0.08152382327156754,0.00010663146,1.6922184e-05,9.180964e-05,0.00012588265,-0.000112795125,1.4367024e-05,0,0,0,0,0,0,0,0,0,0,0,0,0,0,0,0,0,0,0,0,0,0,0,0,0,0,0,0
426,8.52,-0.00049772364,0.037822243,5.007481098175049,0.9966713827231358,-2.2708449680145266e-05,-2.2686857139740868e-06,0.08152394948683467,0.00010520401,2.6050993e-05,8.79854e-05,0.00013178404,-0.00010329097,1.3532558e-05,0,0,0,0,0,0,0,0,0,0,0,0,0,0,0,0,0,0,0,0,0,0,0,0,0,0,0,0
427,8.540000000000001,-0.0004956366,0.03782285,5.007481098175049,0.9966713730351007,-2.1292002532952372e-05,-3.1427482963121895e-06,0.08152406828109723,0.000103457656,3.4605557e-05,8.4118255e-05,0.00013568024,-9.456932e-05,1.2945681e-05,0,0,0,0,0,0,0,0,0,0,0,0,0,0,0,0,0,0,0,0,0,0,0,0,0,0,0,0
428,8.56,-0.0004935873,0.037823625,5.007481098175049,0.9966713633444231,-1.9866669908321377e-05,-3.942141844479722e-06,0.08152418707932117,0.000101428726,4.257622e-05,8.0582504e-05,0.00013432717,-8.8374494e-05,1.2534344e-05,0,0,0,0,0,0,0,0,0,0,0,0,0,0,0,0,0,0,0,0,0,0,0,0,0,0,0,0
429,8.58,-0.0004915812,0.037824553,5.007481098175049,0.9966713536501738,-1.848655205064274e-05,-4.699689684032139e-06,0.08152430588045795,9.914071e-05,4.9970786e-05,7.7535515e-05,0.00012792046,-8.574984e-05,1.2244835e-05,0,0,0,0,0,0,0,0,0,0,0,0,0,0,0,0,0,0,0,0,0,0,0,0,0,0,0,0
430,8.6,-0.0004896234,0.03782562,5.007481098175049,0.9966713433448053,-1.7170169119200943e-05,-5.449581205374371e-06,0.08152443210932883,9.660155e-05,5.6812933e-05,7.51418e-05,0.00012270379,-8.516295e-05,1.1902926e-05,0,0,0,0,0,0,0,0,0,0,0,0,0,0,0,0,0,0,0,0,0,0,0,0,0,0,0,0
431,8.620000000000001,-0.00048771882,0.03782682,5.007481098175049,0.9966713336439004,-1.5886796084992246e-05,-6.189363633254048e-06,0.08152455091437644,9.38116e-05,6.31234e-05,7.3437106e-05,0.000121970195,-8.260351e-05,1.1626519e-05,0,0,0,0,0,0,0,0,0,0,0,0,0,0,0,0,0,0,0,0,0,0,0,0,0,0,0,0
432,8.64,-0.00048587253,0.037828147,5.007481098175049,0.9966713239410313,-1.4593324091404303e-05,-6.882622373043475e-06,0.08152466972209231,9.077999e-05,6.890821e-05,7.2364215e-05,0.00012500242,-7.5968535e-05,1.13121205e-05,0,0,0,0,0,0,0,0,0,0,0,0,0,0,0,0,0,0,0,0,0,0,0,0,0,0,0,0
433,8.66,-0.00048408905,0.037829578,5.007481098175049,0.9966713136294164,-1.3267105630449361e-05,-7.4871460040791996e-06,0.08152479595889767,8.7533066e-05,7.416099e-05,7.171095e-05,0.00012974635,-6.5877495e-05,1.0887684e-05,0,0,0,0,0,0,0,0,0,0,0,0,0,0,0,0,0,0,0,0,0,0,0,0,0,0,0,0
434,8.68,-0.00048237236,0.03783111,5.007481098175049,0.9966713045314172,-1.1909457744681466e-05,-7.987727816078445e-06,0.08152490734741215,8.41106e-05,7.887106e-05,7.1279406e-05,0.00013211014,-5.61125e-05,1.0412156e-05,0,0,0,0,0,0,0,0,0,0,0,0,0,0,0,0,0,0,0,0,0,0,0,0,0,0,0,0
435,8.700000000000001,-0.00048072552,0.03783273,5.007481098175049,0.9966712942169309,-1.055979144741012e-05,-8.402476217038715e-06,0.08152503358991717,8.055152e-05,8.3035135e-05,7.0855014e-05,0.00012902902,-4.898846e-05,9.768951e-06,0,0,0,0,0,0,0,0,0,0,0,0,0,0,0,0,0,0,0,0,0,0,0,0,0,0,0,0
436,8.72,-0.000479151,0.03783443,5.007481098175049,0.996671284507574,-9.278067426545531e-06,-8.763979960597506e-06,0.08152515240790797,7.68827e-05,8.66686e-05,7.038295e-05,0.00011972051,-4.4472756e-05,8.986885e-06,0,0,0,0,0,0,0,0,0,0,0,0,0,0,0,0,0,0,0,0,0,0,0,0,0,0,0,0
437,8.74,-0.00047765084,0.037836194,5.007481098175049,0.9966712796550696,-8.101851992184781e-06,-9.09828173038034e-06,0.08152521182007037,7.311719e-05,8.9807414e-05,6.9925205e-05,0.00010928714,-4.1342726e-05,8.179931e-06,0,0,0,0,0,0,0,0,0,0,0,0,0,0,0,0,0,0,0,0,0,0,0,0,0,0,0,0
438,8.76,-0.00047622694,0.03783802,5.007481098175049,0.9966712748006527,-7.01904692098071e-06,-9.404035810052765e-06,0.08152527123253837,6.92615e-05,9.2493014e-05,6.957472e-05,0.00010255437,-3.6908536e-05,7.306166e-06,0,0,0,0,0,0,0,0,0,0,0,0,0,0,0,0,0,0,0,0,0,0,0,0,0,0,0,0
439,8.78,-0.00047488092,0.037839893,5.007481098175049,0.9966712693376562,-5.974144786988132e-06,-9.669727407188056e-06,0.08152533807149454,6.5327215e-05,9.47546e-05,6.9379224e-05,0.000102521764,-3.3550292e-05,6.3524917e-06,0,0,0,0,0,0,0,0,0,0,0,0,0,0,0,0,0,0,0,0,0,0,0,0,0,0,0,0
440,8.8,-0.00047361423,0.037841808,5.007481098175049,0.9966712650887087,-4.904219855843459e-06,-9.898736812286887e-06,0.08152539006000793,6.13284e-05,9.6596814e-05,6.920757e-05,0.00010755911,-2.901829e-05,5.3516583e-06,0,0,0,0,0,0,0,0,0,0,0,0,0,0,0,0,0,0,0,0,0,0,0,0,0,0,0,0
441,8.82,-0.00047242804,0.037843756,5.007481098175049,0.9966712602319175,-3.7854390623964286e-06,-1.0058151547917916e-05,0.08152544947576362,5.7285448e-05,9.800559e-05,6.897154e-05,0.00011249866,-2.0101019e-05,4.5027837e-06,0,0,0,0,0,0,0,0,0,0,0,0,0,0,0,0,0,0,0,0,0,0,0,0,0,0,0,0
442,8.84,-0.0004713229,0.037845723,5.007481098175049,0.9966712553748289,-2.6468864000315255e-06,-1.0116713707695353e-05,0.08152550889267096,5.3233543e-05,9.896814e-05,6.862582e-05,0.00011246606,-1.0482758e-05,3.801938e-06,0,0,0,0,0,0,0,0,0,0,0,0,0,0,0,0,0,0,0,0,0,0,0,0,0,0,0,0
443,8.86,-0.00047029852,0.037847716,5.007481098175049,0.9966712499097721,-1.5538301761005526e-06,-1.0093483859827411e-05,0.08152557573546922,4.9209662e-05,9.949004e-05,6.802263e-05,0.00010454324,-3.1304946e-06,3.2661512e-06,0,0,0,0,0,0,0,0,0,0,0,0,0,0,0,0,0,0,0,0,0,0,0,0,0,0,0,0
444,8.88,-0.00046935413,0.037849713,5.007481098175049,0.9966712468736278,-5.754553965601673e-07,-1.002612637163419e-05,0.08152561287419736,4.52375e-05,9.960383e-05,6.728828e-05,9.0767935e-05,-2.1241073e-07,2.827304e-06,0,0,0,0,0,0,0,0,0,0,0,0,0,0,0,0,0,0,0,0,0,0,0,0,0,0,0,0
445,8.9,-0.00046848867,0.03785171,5.007481098175049,0.9966712468737084,2.586382339155625e-07,-9.963210203985741e-06,0.08152561288254795,4.1321517e-05,9.9362056e-05,6.656109e-05,7.713935e-05,-1.5002765e-06,2.3871462e-06,0,0,0,0,0,0,0,0,0,0,0,0,0,0,0,0,0,0,0,0,0,0,0,0,0,0,0,0
446,8.92,-0.00046770097,0.03785369,5.007481098175049,0.9966712468730085,9.89079844481544e-07,-9.928143789260242e-06,0.08152561288979232,3.7450325e-05,9.8815704e-05,6.584584e-05,7.0455484e-05,-3.097883e-06,1.8801794e-06,0,0,0,0,0,0,0,0,0,0,0,0,0,0,0,0,0,0,0,0,0,0,0,0,0,0,0,0
447,8.94,-0.0004669904,0.03785566,5.007481098175049,0.9966712468717882,1.6886935437922574e-06,-9.89938147923553e-06,0.08152561289672006,3.3613633e-05,9.7991884e-05,6.525456e-05,7.019464e-05,-2.3805878e-06,1.3679725e-06,0,0,0,0,0,0,0,0,0,0,0,0,0,0,0,0,0,0,0,0,0,0,0,0,0,0,0,0
448,8.96,-0.0004663562,0.037857607,5.007481098175049,0.9966712468702877,2.399286435400583e-06,-9.845626591600544e-06,0.0815256129037571,2.9813522e-05,9.689445e-05,6.476342e-05,7.267256e-05,2.5589582e-06,8.872052e-07,0,0,0,0,0,0,0,0,0,0,0,0,0,0,0,0,0,0,0,0,0,0,0,0,0,0,0,0
449,8.98,-0.0004657975,0.037859533,5.007481098175049,0.99667124686897,3.133503924296274e-06,-9.712366716109349e-06,0.08152561291093614,2.6069443e-05,9.551787e-05,6.4286585e-05,7.588409e-05,1.2454352e-05,6.0031687e-07,0,0,0,0,0,0,0,0,0,0,0,0,0,0,0,0,0,0,0,0,0,0,0,0,0,0,0,0
450,9.0,-0.0004653128,0.037861425,5.007481098175049,0.9966712468680069,3.879549860963372e-06,-9.480377888469688e-06,0.08152561291792933,2.2418606e-05,9.38567e-05,6.369293e-05,7.559065e-05,2.1290103e-05,4.1560799e-07,0,0,0,0,0,0,0,0,0,0,0,0,0,0,0,0,0,0,0,0,0,0,0,0,0,0,0,0
