,t,px,py,pz,qw,qx,qy,qz,vx,vy,vz,omex,omey,omez,accx,accy,accz,taux,tauy,tauz,jerkx,jerky,jerkz,snapx,snapy,snapz,bomex,bomey,bomez,baccx,baccy,baccz,mot1,mot2,mot3,mot4,motdex1,motdex2,motdex3,motdex4,f1,f2,f3,f4
0,0.0,0.0,0.0,5.0,-4.371139000186241e-08,0.999999999999999,0.0,0.0,5.0,0.0,0.0,3.1415927,3.1415927,3.1415927,0,0,0,0,0,0,0,0,0,0,0,0,0,0,0,0,0,0,0,0,0,0,0,0,0,0,0,0
1,0.02,0.20002364,1.6018957e-05,4.991959095001221,-0.03837965775625923,0.9953900108796526,-0.06322957908117414,0.06105529003071961,5.004307,0.002819518,-0.4318513,-0.26184335,2.963816,3.1096952,0,0,0,0,0,0,0,0,0,0,0,0,0,0,0,0,0,0,0,0,0,0,0,0,0,0,0,0
2,0.04,0.4008402,0.00025315757,4.96293306350708,0.04764766724919679,0.9830864688582084,-0.13251361559404823,0.11709328006252746,5.0455174,0.0017652586,-1.0485013,-8.760896,3.8313577,2.9680808,0,0,0,0,0,0,0,0,0,0,0,0,0,0,0,0,0,0,0,0,0,0,0,0,0,0,0,0
3,0.06,0.60410446,-0.001369955,4.9071574211120605,0.3051069374621135,0.9105382851208823,-0.20622936898862937,0.18788090751368205,5.119128,-0.113529734,-1.7344669,-16.21327,8.156257,2.762087,0,0,0,0,0,0,0,0,0,0,0,0,0,0,0,0,0,0,0,0,0,0,0,0,0,0,0,0
4,0.08,0.81007904,-0.0105723785,4.826467990875244,0.6216770061664284,0.6800309010606137,-0.22621241910573253,0.31607533128823745,5.1738887,-0.3545135,-2.2597582,-17.21954,14.216304,2.536309,0,0,0,0,0,0,0,0,0,0,0,0,0,0,0,0,0,0,0,0,0,0,0,0,0,0,0,0
5,0.1,1.0173975,-0.027923571,4.729034900665283,0.8316875019980079,0.3139428359421523,-0.18200601182511073,0.42024945739456937,5.187018,-0.5181412,-2.577529,-17.321726,11.34892,2.3544567,0,0,0,0,0,0,0,0,0,0,0,0,0,0,0,0,0,0,0,0,0,0,0,0,0,0,0,0
6,0.12,1.2239347,-0.051745445,4.6235857009887695,0.8837712887227821,-0.04551916782049201,-0.19151069603381077,0.4244996677205394,5.11551,-0.64673734,-2.6636486,-14.858394,4.2645993,2.0938632,0,0,0,0,0,0,0,0,0,0,0,0,0,0,0,0,0,0,0,0,0,0,0,0,0,0,0,0
7,0.14,1.4244602,-0.077203594,4.5166521072387695,0.8294098964008022,-0.2745951975315719,-0.273584533713973,0.4022787642388244,4.8814387,-0.60046554,-2.6886568,-9.66515,-2.400903,1.7694346,0,0,0,0,0,0,0,0,0,0,0,0,0,0,0,0,0,0,0,0,0,0,0,0,0,0,0,0
8,0.16,1.6123556,-0.09877043,4.407348155975342,0.7398380209655171,-0.35167224636527183,-0.3939885159989895,0.41682056466919304,4.4963055,-0.4806497,-2.7977207,-3.6526358,-7.1199617,1.4395477,0,0,0,0,0,0,0,0,0,0,0,0,0,0,0,0,0,0,0,0,0,0,0,0,0,0,0,0
9,0.18,1.7831341,-0.116814286,4.291451930999756,0.6452306053131103,-0.3138622905293465,-0.509578546518528,0.4748659110517557,4.040061,-0.44384983,-3.0116029,-0.18280752,-8.009191,1.0534247,0,0,0,0,0,0,0,0,0,0,0,0,0,0,0,0,0,0,0,0,0,0,0,0,0,0,0,0
10,0.2,1.9355605,-0.13612725,4.165533065795898,0.5632457840497904,-0.26308288879723346,-0.5878877890720274,0.5176190953126079,3.5813758,-0.54119617,-3.292951,-1.004063,-4.6329923,0.61740613,0,0,0,0,0,0,0,0,0,0,0,0,0,0,0,0,0,0,0,0,0,0,0,0,0,0,0,0
11,0.22,2.0690837,-0.16141832,4.027411937713623,0.5172958168398486,-0.2569747545254284,-0.631689993573824,0.5170461927480866,3.0914683,-0.73186415,-3.6214035,-1.6329451,-1.0337234,0.30649486,0,0,0,0,0,0,0,0,0,0,0,0,0,0,0,0,0,0,0,0,0,0,0,0,0,0,0,0
12,0.24,2.1823058,-0.19507958,3.875312566757202,0.5110787152855097,-0.2681531248935005,-0.638734188181238,0.5088330622516765,2.5567436,-0.9551753,-3.9860098,0.18532893,0.7292866,0.1419777,0,0,0,0,0,0,0,0,0,0,0,0,0,0,0,0,0,0,0,0,0,0,0,0,0,0,0,0
13,0.26,2.2728806,-0.23794767,3.708688735961914,0.5289522902867719,-0.2655404773485914,-0.6154026164480128,0.5205548474068808,1.9624097,-1.1901166,-4.338205,2.2581122,1.0023781,0.021653498,0,0,0,0,0,0,0,0,0,0,0,0,0,0,0,0,0,0,0,0,0,0,0,0,0,0,0,0
14,0.28,2.3389251,-0.2903855,3.529134511947632,0.5568716580701929,-0.24624430357652524,-0.5734657040983251,0.5480828273329483,1.337476,-1.432949,-4.625276,3.1769805,1.255971,-0.09046188,0,0,0,0,0,0,0,0,0,0,0,0,0,0,0,0,0,0,0,0,0,0,0,0,0,0,0,0
15,0.3,2.3800385,-0.35251296,3.339881420135498,0.5913523677760211,-0.2278041911667416,-0.5202557204983856,0.5724872163649297,0.7197308,-1.6712186,-4.8211527,2.8955488,2.1285176,-0.20992066,0,0,0,0,0,0,0,0,0,0,0,0,0,0,0,0,0,0,0,0,0,0,0,0,0,0,0,0
16,0.32,2.3967342,-0.42365426,3.144679307937622,0.6319259239395217,-0.22518317923048853,-0.459425242537317,0.582143117252415,0.11600513,-1.8781118,-4.923199,2.1911883,3.1591423,-0.31979388,0,0,0,0,0,0,0,0,0,0,0,0,0,0,0,0,0,0,0,0,0,0,0,0,0,0,0,0
17,0.34,2.3894787,-0.50188434,2.947178602218628,0.6749245469677958,-0.2380913674402339,-0.39275093195310967,0.5775258107658211,-0.47669446,-2.0198963,-4.938064,1.6992251,3.8021708,-0.3976183,0,0,0,0,0,0,0,0,0,0,0,0,0,0,0,0,0,0,0,0,0,0,0,0,0,0,0,0
18,0.36,2.3589265,-0.58400375,2.7505877017974854,0.7157523788198631,-0.2581255222939969,-0.3219613186287126,0.5633920981528046,-1.0455863,-2.0693016,-4.8807125,1.5221194,4.000328,-0.44845575,0,0,0,0,0,0,0,0,0,0,0,0,0,0,0,0,0,0,0,0,0,0,0,0,0,0,0,0
19,0.38,2.3064373,-0.6660584,2.5574357509613037,0.7518384079028265,-0.2767743431583684,-0.24920818839730058,0.544086620132431,-1.5698153,-2.0165331,-4.769087,1.6174436,3.8554473,-0.48667553,0,0,0,0,0,0,0,0,0,0,0,0,0,0,0,0,0,0,0,0,0,0,0,0,0,0,0,0
20,0.4,2.2342186,-0.7440569,2.3695719242095947,0.7828907942942599,-0.28722354603875583,-0.17666186868672573,0.5228529649551005,-2.0288446,-1.8688568,-4.6184435,1.932487,3.47515,-0.5229578,0,0,0,0,0,0,0,0,0,0,0,0,0,0,0,0,0,0,0,0,0,0,0,0,0,0,0,0
21,0.42,2.1452274,-0.81455404,2.1883440017700195,0.8099259105854496,-0.28499864409956505,-0.10609351772372717,0.5015375935268912,-2.4062023,-1.6451751,-4.4382186,2.3640518,2.9881024,-0.55918276,0,0,0,0,0,0,0,0,0,0,0,0,0,0,0,0,0,0,0,0,0,0,0,0,0,0,0,0
22,0.44,2.0429783,-0.87498194,2.014836549758911,0.8338322979711894,-0.26930322673944035,-0.038636374658181996,0.4803193744594153,-2.6902273,-1.3692957,-4.232663,2.741745,2.5356572,-0.5896779,0,0,0,0,0,0,0,0,0,0,0,0,0,0,0,0,0,0,0,0,0,0,0,0,0,0,0,0
23,0.46,1.9313571,-0.9237159,1.8500094413757324,0.8543867125527107,-0.24341127622634845,0.024698094431809592,0.4584368006068768,-2.8740134,-1.0639366,-4.0048385,2.8975942,2.1667504,-0.6079722,0,0,0,0,0,0,0,0,0,0,0,0,0,0,0,0,0,0,0,0,0,0,0,0,0,0,0,0
24,0.48,1.8144144,-0.9599608,1.694654941558838,0.8707430390728144,-0.21271173911127195,0.08165435922466803,0.43576695786865977,-2.9566936,-0.7476092,-3.7603738,2.7569692,1.7900149,-0.61138815,0,0,0,0,0,0,0,0,0,0,0,0,0,0,0,0,0,0,0,0,0,0,0,0,0,0,0,0
25,0.5,1.6960727,-0.9835746,1.5492818355560303,0.8828051681920713,-0.1820763301183792,0.12843877175714896,0.4135295962002075,-2.9459918,-0.43435633,-3.5070012,2.369427,1.3081058,-0.6009674,0,0,0,0,0,0,0,0,0,0,0,0,0,0,0,0,0,0,0,0,0,0,0,0,0,0,0,0
26,0.52,1.5797622,-0.9948867,1.4141297340393066,0.8917554312377086,-0.15444642329342304,0.16175867391953555,0.39338617744108695,-2.8583827,-0.13377455,-3.2497199,1.8746283,0.7433835,-0.58159375,0,0,0,0,0,0,0,0,0,0,0,0,0,0,0,0,0,0,0,0,0,0,0,0,0,0,0,0
27,0.54,1.4681474,-0.9945295,1.2893447875976562,0.8992493889724849,-0.1306374690693417,0.1809927490166375,0.37619943236423126,-2.7147217,0.14832652,-2.9883385,1.4215251,0.19859521,-0.55976194,0,0,0,0,0,0,0,0,0,0,0,0,0,0,0,0,0,0,0,0,0,0,0,0,0,0,0,0
28,0.56,1.3630613,-0.9833215,1.17514967918396,0.9064505248643143,-0.10996629609064615,0.18811050139088628,0.36175861975049456,-2.5350313,0.40819165,-2.7197227,1.0880164,-0.2500359,-0.53945345,0,0,0,0,0,0,0,0,0,0,0,0,0,0,0,0,0,0,0,0,0,0,0,0,0,0,0,0
29,0.58,1.2656043,-0.9622139,1.0719022750854492,0.9137987297513039,-0.09123555990287147,0.1860710654847243,0.34932150335112844,-2.335668,0.6427802,-2.4405797,0.8753685,-0.58531064,-0.5214633,0,0,0,0,0,0,0,0,0,0,0,0,0,0,0,0,0,0,0,0,0,0,0,0,0,0,0,0
30,0.6,1.176305,-0.9322748,0.9800701141357422,0.9212614501343865,-0.07342538032702972,0.17761683517716237,0.33813948879385114,-2.1288817,0.84929496,-2.1487963,0.7530118,-0.8194677,-0.5051135,0,0,0,0,0,0,0,0,0,0,0,0,0,0,0,0,0,0,0,0,0,0,0,0,0,0,0,0
31,0.62,1.0952748,-0.89467895,0.9001765251159668,0.9286064382142117,-0.05588797250040057,0.1649498733446476,0.32765554584119994,-1.923445,1.0252272,-1.8437465,0.6909851,-0.9694063,-0.4895362,0,0,0,0,0,0,0,0,0,0,0,0,0,0,0,0,0,0,0,0,0,0,0,0,0,0,0,0
32,0.64,1.0223312,-0.85069203,0.8327417373657227,0.9355661793349743,-0.03828275906708446,0.14978752659964212,0.31751228530236697,-1.7253612,1.1685588,-1.5260707,0.6671397,-1.0513759,-0.47415936,0,0,0,0,0,0,0,0,0,0,0,0,0,0,0,0,0,0,0,0,0,0,0,0,0,0,0,0
33,0.66,0.95709735,-0.8016482,0.7782425880432129,0.9419196166659958,-0.020481770741858748,0.1334287347929023,0.30751374853594265,-1.5384482,1.2778984,-1.1972852,0.6647243,-1.0816616,-0.45877808,0,0,0,0,0,0,0,0,0,0,0,0,0,0,0,0,0,0,0,0,0,0,0,0,0,0,0,0
34,0.68,0.899078,-0.7489241,0.7370843887329102,0.9475230766305575,-0.002509721182944978,0.11678749081360616,0.2975809176368814,-1.3648816,1.3525056,-0.8594261,0.67052245,-1.0758073,-0.44346556,0,0,0,0,0,0,0,0,0,0,0,0,0,0,0,0,0,0,0,0,0,0,0,0,0,0,0,0
35,0.7000000000000001,0.8477153,-0.6939133,0.7095837593078613,0.9523101039837392,0.01549400073095535,0.10044466834518365,0.2877086554013542,-1.2057198,1.3922626,-0.51478726,0.6745542,-1.0466602,-0.4284472,0,0,0,0,0,0,0,0,0,0,0,0,0,0,0,0,0,0,0,0,0,0,0,0,0,0,0,0
36,0.72,0.802424,-0.63800246,0.6959657669067383,0.9562775522810723,0.03330403581748592,0.08473002101703135,0.27792968128654794,-1.0613444,1.3976446,-0.16573796,0.66973096,-1.0031364,-0.41400284,0,0,0,0,0,0,0,0,0,0,0,0,0,0,0,0,0,0,0,0,0,0,0,0,0,0,0,0
37,0.74,0.76261127,-0.5825474,0.6963591575622559,0.9594706032040063,0.05062667463209582,0.06981145736393181,0.2682898839385487,-0.93177295,1.3697109,0.18541184,0.65089405,-0.9503818,-0.4004225,0,0,0,0,0,0,0,0,0,0,0,0,0,0,0,0,0,0,0,0,0,0,0,0,0,0,0,0
38,0.76,0.72768784,-0.5288494,0.7108049392700195,0.9619725457432073,0.06710370077313212,0.05576791146070065,0.25883557450666284,-0.81685,1.3101244,0.5365319,0.61367035,-0.89071345,-0.3880108,0,0,0,0,0,0,0,0,0,0,0,0,0,0,0,0,0,0,0,0,0,0,0,0,0,0,0,0
39,0.78,0.6970719,-0.4781307,0.7392640113830566,0.9639002526997407,0.0823072505452714,0.04264052618790756,0.2496069007048332,-0.7163452,1.2211968,0.8858096,0.5539947,-0.82439125,-0.37712848,0,0,0,0,0,0,0,0,0,0,0,0,0,0,0,0,0,0,0,0,0,0,0,0,0,0,0,0
40,0.8,0.67019224,-0.43150702,0.7816343307495117,0.9654016552175472,0.09574006354137503,0.03047693839857771,0.2406338308762149,-0.6299869,1.1059371,1.2319247,0.46877298,-0.74959975,-0.36825204,0,0,0,0,0,0,0,0,0,0,0,0,0,0,0,0,0,0,0,0,0,0,0,0,0,0,0,0
41,0.8200000000000001,0.6464894,-0.38995942,0.8377742767333984,0.9666500949086968,0.10685754133552666,0.01938087614617778,0.2319341318403572,-0.5574297,0.96808594,1.5742238,0.357279,-0.66254467,-0.36200333,0,0,0,0,0,0,0,0,0,0,0,0,0,0,0,0,0,0,0,0,0,0,0,0,0,0,0,0
42,0.84,0.625421,-0.35430446,0.9075307846069336,0.9678322789253287,0.11511787332647588,0.009548819483367985,0.22351146538257916,-0.4981577,0.812116,1.912792,0.2219481,-0.55919355,-0.3591053,0,0,0,0,0,0,0,0,0,0,0,0,0,0,0,0,0,0,0,0,0,0,0,0,0,0,0,0
43,0.86,0.6064708,-0.32516572,0.9907670021057129,0.9691293247351338,0.12004536640333728,0.001257815626727339,0.21535059749942936,-0.45135483,0.6431963,2.2483544,0.06771642,-0.43820748,-0.36029404,0,0,0,0,0,0,0,0,0,0,0,0,0,0,0,0,0,0,0,0,0,0,0,0,0,0,0,0
44,0.88,0.5891627,-0.3029475,1.0873849391937256,0.9706935978438105,0.12127888062805056,-0.005201984672456986,0.2074085619595141,-0.4158103,0.46709913,2.5820577,-0.099717624,-0.30270702,-0.3662701,0,0,0,0,0,0,0,0,0,0,0,0,0,0,0,0,0,0,0,0,0,0,0,0,0,0,0,0
45,0.9,0.5730772,-0.28781354,1.197336196899414,0.9726274295577442,0.11858379435130637,-0.009615330290950581,0.1996028867840809,-0.38992104,0.2900577,2.9152048,-0.27580175,-0.15971558,-0.37770328,0,0,0,0,0,0,0,0,0,0,0,0,0,0,0,0,0,0,0,0,0,0,0,0,0,0,0,0
46,0.92,0.55786526,-0.2796716,1.3206238746643066,0.9749695769580089,0.11182032144278091,-0.011909247867685508,0.1918038308636735,-0.3718071,0.11861179,3.248971,-0.4588885,-0.018034708,-0.39526966,0,0,0,0,0,0,0,0,0,0,0,0,0,0,0,0,0,0,0,0,0,0,0,0,0,0,0,0
47,0.9400000000000001,0.5432552,-0.27816355,1.457289218902588,0.9776925128347353,0.10086705689094848,-0.012179112091463704,0.18383377385486713,-0.3595095,-0.04049369,3.5840786,-0.6521187,0.114285745,-0.41970855,0,0,0,0,0,0,0,0,0,0,0,0,0,0,0,0,0,0,0,0,0,0,0,0,0,0,0,0
48,0.96,0.52905136,-0.28265736,1.6073882579803467,0.9807069459818973,0.08549437223871008,-0.010677420687566792,0.1754724796252383,-0.35122153,-0.18029132,3.9204154,-0.8659952,0.23153885,-0.4519018,0,0,0,0,0,0,0,0,0,0,0,0,0,0,0,0,0,0,0,0,0,0,0,0,0,0,0,0
49,0.98,0.51512337,-0.29223478,1.7709476947784424,0.9838604250919049,0.06517497496890208,-0.007805262268876595,0.1664631023881661,-0.34552726,-0.29339474,4.25651,-1.1223841,0.32841346,-0.49285212,0,0,0,0,0,0,0,0,0,0,0,0,0,0,0,0,0,0,0,0,0,0,0,0,0,0,0,0
50,1.0,0.50138485,-0.30566707,1.9478943347930908,0.9869037596152833,0.03880826525374589,-0.0042266006808930005,0.15651525054095614,-0.34171107,-0.37159997,4.5886397,-1.4620615,0.38816845,-0.5429748,0,0,0,0,0,0,0,0,0,0,0,0,0,0,0,0,0,0,0,0,0,0,0,0,0,0,0,0
51,1.02,0.48775342,-0.32137224,2.1379332542419434,0.9893718916333849,0.0043001530453846415,-0.0014271630589593122,0.1453366159478305,-0.3404575,-0.40539843,4.9089093,-1.9620776,0.34658173,-0.5987257,0,0,0,0,0,0,0,0,0,0,0,0,0,0,0,0,0,0,0,0,0,0,0,0,0,0,0,0
52,1.04,0.47406313,-0.3373591,2.340308666229248,0.9902437526060341,-0.0419564894726555,-0.0032013655270110727,0.13284093749523537,-0.34567818,-0.38405392,5.201173,-2.723429,0.050219025,-0.64442104,0,0,0,0,0,0,0,0,0,0,0,0,0,0,0,0,0,0,0,0,0,0,0,0,0,0,0,0
53,1.06,0.45988467,-0.35122815,2.5533406734466553,0.9873667558680279,-0.10263898459431513,-0.01564130592912274,0.11969744273344216,-0.36664087,-0.29915866,5.4353004,-3.4016392,-0.47045168,-0.65113586,0,0,0,0,0,0,0,0,0,0,0,0,0,0,0,0,0,0,0,0,0,0,0,0,0,0,0,0
54,1.08,0.44443896,-0.36059076,2.7736682891845703,0.980258851482938,-0.16249235015020141,-0.03449766718852257,0.10723213692995938,-0.40810838,-0.16452095,5.557076,-2.5271518,-0.5145264,-0.59031945,0,0,0,0,0,0,0,0,0,0,0,0,0,0,0,0,0,0,0,0,0,0,0,0,0,0,0,0
55,1.1,0.42718145,-0.36438897,2.995988130569458,0.9770952554192414,-0.1852080467144744,-0.04126792466638694,0.09633171680783997,-0.4525475,-0.032067597,5.531086,0.12894419,0.23479886,-0.47548985,0,0,0,0,0,0,0,0,0,0,0,0,0,0,0,0,0,0,0,0,0,0,0,0,0,0,0,0
56,1.12,0.40848288,-0.36379674,3.214409112930298,0.9832420630719544,-0.15783295802121491,-0.02707769108423675,0.0871240576065358,-0.4788494,0.052728955,5.3710256,2.5865247,1.1234151,-0.346749,0,0,0,0,0,0,0,0,0,0,0,0,0,0,0,0,0,0,0,0,0,0,0,0,0,0,0,0
57,1.1400000000000001,0.3891376,-0.3608567,3.4242453575134277,0.9905872389989929,-0.1107212538788239,-0.007316903686071642,0.08015103737508125,-0.48671514,0.089682154,5.11211,2.010744,0.403569,-0.22389428,0,0,0,0,0,0,0,0,0,0,0,0,0,0,0,0,0,0,0,0,0,0,0,0,0,0,0,0
58,1.16,0.3696269,-0.3569318,3.6225361824035645,0.9937714323282747,-0.0812046611215358,0.0046458546453423,0.07617453206262505,-0.48831952,0.10458881,4.796268,1.0561409,0.66575766,-0.097300164,0,0,0,0,0,0,0,0,0,0,0,0,0,0,0,0,0,0,0,0,0,0,0,0,0,0,0,0
59,1.18,0.35009947,-0.35260805,3.8074374198913574,0.9946521833772434,-0.0689998379478508,0.020709731065221417,0.07400786110447465,-0.48782948,0.11097235,4.4458485,0.3185455,0.8049672,-0.003029523,0,0,0,0,0,0,0,0,0,0,0,0,0,0,0,0,0,0,0,0,0,0,0,0,0,0,0,0
60,1.2,0.3305929,-0.3481423,3.977614164352417,0.9946474306107902,-0.06538934573778266,0.031272767610251245,0.07363923036896562,-0.48746386,0.112195194,4.0622263,0.15596172,0.18953732,0.040359583,0,0,0,0,0,0,0,0,0,0,0,0,0,0,0,0,0,0,0,0,0,0,0,0,0,0,0,0
61,1.22,0.31109118,-0.34366202,4.132198333740234,0.9945148540481189,-0.06580083421490701,0.03206848958748347,0.07471323356573802,-0.48757324,0.11193967,3.6679015,-0.1970914,-0.052491125,0.06888531,0,0,0,0,0,0,0,0,0,0,0,0,0,0,0,0,0,0,0,0,0,0,0,0,0,0,0,0
62,1.24,0.2915828,-0.33919907,4.270962238311768,0.9940630865649549,-0.07141171578271598,0.02953853696621058,0.07659256890730004,-0.4878087,0.11131515,3.271058,-0.36390486,-0.1527468,0.084053926,0,0,0,0,0,0,0,0,0,0,0,0,0,0,0,0,0,0,0,0,0,0,0,0,0,0,0,0
63,1.26,0.27206698,-0.33475837,4.393878936767578,0.9934595600522387,-0.07839496734130207,0.026313868343964077,0.07873951974164653,-0.48795697,0.11081123,2.8753765,-0.36161432,-0.12881143,0.08925886,0,0,0,0,0,0,0,0,0,0,0,0,0,0,0,0,0,0,0,0,0,0,0,0,0,0,0,0
64,1.28,0.2525475,-0.3303311,4.5010151863098145,0.9928810272352432,-0.08405869552582436,0.024535683698628664,0.08074281199107239,-0.4879582,0.110828124,2.4830267,-0.19979829,0.0071489876,0.08287634,0,0,0,0,0,0,0,0,0,0,0,0,0,0,0,0,0,0,0,0,0,0,0,0,0,0,0,0
65,1.3,0.23303367,-0.32587638,4.592611789703369,0.9926544533988941,-0.08464233889086206,0.02762266238519507,0.08191336360558546,-0.48766312,0.1121932,2.0983999,0.17705594,0.31445527,0.057698324,0,0,0,0,0,0,0,0,0,0,0,0,0,0,0,0,0,0,0,0,0,0,0,0,0,0,0,0
66,1.32,0.21353002,-0.32137713,4.668765544891357,0.9927666994189515,-0.08010929990202263,0.035301941516712364,0.08216175216704955,-0.4874581,0.11288592,1.71005,0.29566523,0.37266746,0.043387722,0,0,0,0,0,0,0,0,0,0,0,0,0,0,0,0,0,0,0,0,0,0,0,0,0,0,0,0
67,1.34,0.19404303,-0.31683227,4.729498863220215,0.9928685724556202,-0.0755249525991335,0.04185375738735508,0.08219636462397811,-0.48659635,0.11496677,1.33049,0.16173531,0.16695811,0.0239474,0,0,0,0,0,0,0,0,0,0,0,0,0,0,0,0,0,0,0,0,0,0,0,0,0,0,0,0
68,1.36,0.17465551,-0.312069,4.775913238525391,0.9929459183728666,-0.07412684747609873,0.0424283884560262,0.08224016976480628,-0.4820154,0.12478428,1.0004869,-0.016956588,-0.103236735,-0.010323609,0,0,0,0,0,0,0,0,0,0,0,0,0,0,0,0,0,0,0,0,0,0,0,0,0,0,0,0
69,1.3800000000000001,0.15556028,-0.30667284,4.810673713684082,0.9930816532338312,-0.07346999760181187,0.041102970715058834,0.08186290528161848,-0.47199678,0.14677617,0.7489109,0.108953506,0.01993476,-0.031833682,0,0,0,0,0,0,0,0,0,0,0,0,0,0,0,0,0,0,0,0,0,0,0,0,0,0,0,0
70,1.4000000000000001,0.13697213,-0.30018285,4.836831569671631,0.9933401832194264,-0.06899668525743485,0.04456853682910205,0.08079841180367217,-0.45649832,0.1787726,0.56784576,0.32606262,0.26146016,-0.032750465,0,0,0,0,0,0,0,0,0,0,0,0,0,0,0,0,0,0,0,0,0,0,0,0,0,0,0,0
71,1.42,0.11913271,-0.2923032,4.856802940368652,0.9935723333461353,-0.06328962154363854,0.04967609345429467,0.07962868800312689,-0.4344326,0.2156324,0.43708867,0.22666268,0.1292961,-0.02624104,0,0,0,0,0,0,0,0,0,0,0,0,0,0,0,0,0,0,0,0,0,0,0,0,0,0,0,0
72,1.44,0.10229926,-0.28287923,4.872432708740234,0.9938341148583443,-0.060008701536794454,0.0493308457576854,0.07911495143416777,-0.40678912,0.25588295,0.34924716,0.14283693,-0.18207988,-0.00887931,0,0,0,0,0,0,0,0,0,0,0,0,0,0,0,0,0,0,0,0,0,0,0,0,0,0,0,0
73,1.46,0.086615354,-0.2717962,4.885287761688232,0.9943265588917112,-0.05452136240138442,0.04535185407788121,0.07928003945612033,-0.37758502,0.2979788,0.296244,0.40222248,-0.20415084,0.025387153,0,0,0,0,0,0,0,0,0,0,0,0,0,0,0,0,0,0,0,0,0,0,0,0,0,0,0,0
74,1.48,0.0720902,-0.25908843,4.896407127380371,0.9948635374925388,-0.04418063897465256,0.04392409105863131,0.07978274959097613,-0.34875655,0.33618632,0.25980073,0.54687893,-0.040907536,0.05136873,0,0,0,0,0,0,0,0,0,0,0,0,0,0,0,0,0,0,0,0,0,0,0,0,0,0,0,0
75,1.5,0.05872844,-0.24499594,4.9061665534973145,0.9951771956367148,-0.034932617191706324,0.04392679319221623,0.08045183888905305,-0.31927994,0.36727303,0.22761871,0.34102404,-0.091710486,0.046904076,0,0,0,0,0,0,0,0,0,0,0,0,0,0,0,0,0,0,0,0,0,0,0,0,0,0,0,0
76,1.52,0.04655472,-0.22976655,4.914778709411621,0.9954401452550681,-0.029137372371162974,0.040889784138002074,0.08110460097319162,-0.2897083,0.39348772,0.20306464,0.27302068,-0.24960746,0.032183196,0,0,0,0,0,0,0,0,0,0,0,0,0,0,0,0,0,0,0,0,0,0,0,0,0,0,0,0
77,1.54,0.03552924,-0.21356937,4.922602653503418,0.995765287114415,-0.02131519448598346,0.03667445969971786,0.08156064901473559,-0.2620513,0.41536298,0.18777047,0.48317716,-0.20319155,0.030522695,0,0,0,0,0,0,0,0,0,0,0,0,0,0,0,0,0,0,0,0,0,0,0,0,0,0,0,0
78,1.56,0.025569545,-0.19663496,4.929862022399902,0.9959749906728494,-0.010797963163399883,0.03478075660594937,0.08189945613773676,-0.23615885,0.4299702,0.17386879,0.48906466,-0.097413436,0.03149197,0,0,0,0,0,0,0,0,0,0,0,0,0,0,0,0,0,0,0,0,0,0,0,0,0,0,0,0
79,1.58,0.01663209,-0.17927112,4.936527729034424,0.9960578045451918,-0.003186333423125625,0.0331154390000445,0.08223177599786631,-0.21090747,0.43722942,0.15823498,0.2576307,-0.15806636,0.02350541,0,0,0,0,0,0,0,0,0,0,0,0,0,0,0,0,0,0,0,0,0,0,0,0,0,0,0,0
80,1.6,0.008681664,-0.16171564,4.942618370056152,0.9961506486546338,0.0014896823373621564,0.029576850226094915,0.08250379362301598,-0.18704745,0.43993673,0.14571223,0.24047953,-0.2113912,0.018330134,0,0,0,0,0,0,0,0,0,0,0,0,0,0,0,0,0,0,0,0,0,0,0,0,0,0,0,0
81,1.62,0.0016403164,-0.14413232,4.948269844055176,0.9961867052819728,0.008108448423236088,0.02653235850170367,0.0827184092929313,-0.16540445,0.43838704,0.13574238,0.3873531,-0.13944198,0.02090177,0,0,0,0,0,0,0,0,0,0,0,0,0,0,0,0,0,0,0,0,0,0,0,0,0,0,0,0
82,1.6400000000000001,-0.004567589,-0.12672411,4.953474998474121,0.9961243514210684,0.015569149127535879,0.024780750853347373,0.08294451451750458,-0.14520112,0.43108925,0.12304352,0.29868385,-0.11934056,0.019999934,0,0,0,0,0,0,0,0,0,0,0,0,0,0,0,0,0,0,0,0,0,0,0,0,0,0,0,0
83,1.6600000000000001,-0.009988856,-0.109709695,4.958141803741455,0.9960957649826033,0.019635382666816047,0.022197769830894838,0.08315610468140285,-0.12617467,0.41911608,0.10947517,0.1104261,-0.16680574,0.015023054,0,0,0,0,0,0,0,0,0,0,0,0,0,0,0,0,0,0,0,0,0,0,0,0,0,0,0,0
84,1.68,-0.014685569,-0.09322853,4.962324142456055,0.996092384720483,0.022022604625211266,0.019233937274207677,0.08333679646059619,-0.10903672,0.40464246,0.099193,0.14616658,-0.13080463,0.013906326,0,0,0,0,0,0,0,0,0,0,0,0,0,0,0,0,0,0,0,0,0,0,0,0,0,0,0,0
85,1.7,-0.018731942,-0.07737343,4.966121673583984,0.9960122938608579,0.026024630131729155,0.017542056652131276,0.08351350401553222,-0.093491375,0.38763577,0.08967698,0.21787253,-0.08341984,0.013237676,0,0,0,0,0,0,0,0,0,0,0,0,0,0,0,0,0,0,0,0,0,0,0,0,0,0,0,0
86,1.72,-0.022175694,-0.062262334,4.969503402709961,0.9959334346305998,0.029490304853104714,0.015865258965203834,0.08363736762078632,-0.07889509,0.3674976,0.07852813,0.09334481,-0.11790537,0.008887383,0,0,0,0,0,0,0,0,0,0,0,0,0,0,0,0,0,0,0,0,0,0,0,0,0,0,0,0
87,1.74,-0.025061347,-0.04800069,4.972463130950928,0.9959419011057276,0.030225702448987857,0.013401244088907263,0.08370509656074844,-0.06570357,0.34547976,0.06922594,-0.008060592,-0.11349389,0.0066987886,0,0,0,0,0,0,0,0,0,0,0,0,0,0,0,0,0,0,0,0,0,0,0,0,0,0,0,0
88,1.76,-0.027452696,-0.03463179,4.975109100341797,0.9959420639005758,0.03061883267674006,0.011796550041092672,0.08380175324003121,-0.054080673,0.32292885,0.06273008,0.051137716,-0.049754567,0.0071054823,0,0,0,0,0,0,0,0,0,0,0,0,0,0,0,0,0,0,0,0,0,0,0,0,0,0,0,0
89,1.78,-0.029397437,-0.022178084,4.977494716644287,0.9959012166802723,0.031995700378141395,0.010951585050467609,0.08388745172520112,-0.04326325,0.29961193,0.05579481,0.056413405,-0.05969122,0.004158831,0,0,0,0,0,0,0,0,0,0,0,0,0,0,0,0,0,0,0,0,0,0,0,0,0,0,0,0
90,1.8,-0.030923868,-0.010676573,4.979593753814697,0.9959101456997421,0.03225569144306422,0.009306930075649575,0.08388046920717175,-0.033273753,0.2754295,0.048753764,-0.044713616,-0.09240858,0.00086994463,0,0,0,0,0,0,0,0,0,0,0,0,0,0,0,0,0,0,0,0,0,0,0,0,0,0,0,0
91,1.82,-0.032077543,-0.00014253776,4.981451988220215,0.9959636195460084,0.031036128070175518,0.007706024902062857,0.08386801819188455,-0.024638295,0.25142097,0.044056423,-0.06712178,-0.042560816,0.0016273091,0,0,0,0,0,0,0,0,0,0,0,0,0,0,0,0,0,0,0,0,0,0,0,0,0,0,0,0
92,1.84,-0.032906305,0.0094471155,4.983146667480469,0.9959899639181545,0.030195749064862148,0.007221628689349476,0.08390504509144989,-0.01687854,0.22819082,0.040278357,-0.023380931,-0.010926896,0.0012240328,0,0,0,0,0,0,0,0,0,0,0,0,0,0,0,0,0,0,0,0,0,0,0,0,0,0,0,0
93,1.86,-0.033432174,0.018117966,4.984677314758301,0.9960132650850162,0.029635399375939783,0.006531618319419133,0.08388478312926256,-0.009512978,0.20543742,0.035776366,-0.0522368,-0.053310715,-0.0022138788,0,0,0,0,0,0,0,0,0,0,0,0,0,0,0,0,0,0,0,0,0,0,0,0,0,0,0,0
94,1.8800000000000001,-0.033679087,0.025889203,4.986039161682129,0.9960719681757595,0.028123882946413405,0.0051835798029720714,0.0838022190810684,-0.0030296757,0.1833092,0.032214615,-0.10237124,-0.048334643,-0.0026710583,0,0,0,0,0,0,0,0,0,0,0,0,0,0,0,0,0,0,0,0,0,0,0,0,0,0,0,0
95,1.9000000000000001,-0.033687502,0.032799307,4.98728609085083,0.9961303909721646,0.026199472682099927,0.004569184851880858,0.08376726307222773,0.002501636,0.16244829,0.030008074,-0.0872182,0.0035816366,-0.0010005716,0,0,0,0,0,0,0,0,0,0,0,0,0,0,0,0,0,0,0,0,0,0,0,0,0,0,0,0
96,1.92,-0.03348264,0.03890296,4.988441467285156,0.9961705923533498,0.024707756272322155,0.004471509091528481,0.0837477361891528,0.0077120382,0.14294204,0.027409114,-0.071847014,-0.010321748,-0.0025633785,0,0,0,0,0,0,0,0,0,0,0,0,0,0,0,0,0,0,0,0,0,0,0,0,0,0,0,0
97,1.94,-0.033075444,0.04424895,4.98948860168457,0.9962190895123363,0.023113265840221657,0.003685892362975179,0.08366431037724159,0.012526247,0.124561705,0.024693236,-0.098684624,-0.04183219,-0.004304604,0,0,0,0,0,0,0,0,0,0,0,0,0,0,0,0,0,0,0,0,0,0,0,0,0,0,0,0
98,1.96,-0.03249182,0.048885003,4.990444183349609,0.9962737954645176,0.02107489338141241,0.0028782462985763157,0.08358282741048915,0.016521811,0.10749934,0.023013417,-0.10720171,-0.008776564,-0.0026055276,0,0,0,0,0,0,0,0,0,0,0,0,0,0,0,0,0,0,0,0,0,0,0,0,0,0,0,0
99,1.98,-0.03175996,0.052869674,4.991338729858398,0.9963154636581466,0.0191457061712729,0.0028212724784344636,0.08355225450254554,0.020041259,0.0919921,0.02147057,-0.08927385,0.01250261,-0.0017968146,0,0,0,0,0,0,0,0,0,0,0,0,0,0,0,0,0,0,0,0,0,0,0,0,0,0,0,0
100,2.0,-0.030890089,0.056263115,4.992160797119141,0.9963515272328087,0.01744633492357719,0.0025864250678342762,0.08350191604959009,0.023404067,0.07790372,0.019403646,-0.0900889,-0.020314729,-0.0034580948,0,0,0,0,0,0,0,0,0,0,0,0,0,0,0,0,0,0,0,0,0,0,0,0,0,0,0,0
101,2.02,-0.029894637,0.059118994,4.992907524108887,0.9963900038615396,0.015632150565235675,0.0018480995783617935,0.08342170341976503,0.026249412,0.06511828,0.017808113,-0.098896414,-0.022495264,-0.003102407,0,0,0,0,0,0,0,0,0,0,0,0,0,0,0,0,0,0,0,0,0,0,0,0,0,0,0,0
102,2.04,-0.028798226,0.061491095,4.993600368499756,0.9964212976019706,0.0137933835789103,0.0015336246122594987,0.08337858388218548,0.02850641,0.05372481,0.016707743,-0.08964188,0.009633654,-0.0011847393,0,0,0,0,0,0,0,0,0,0,0,0,0,0,0,0,0,0,0,0,0,0,0,0,0,0,0,0
103,2.06,-0.027616296,0.06343532,4.994242191314697,0.9964443690542947,0.01215654997934051,0.0015431389258058234,0.08335740156005406,0.030574778,0.043702766,0.015181018,-0.08083035,0.00089435576,-0.0015608933,0,0,0,0,0,0,0,0,0,0,0,0,0,0,0,0,0,0,0,0,0,0,0,0,0,0,0,0
104,2.08,-0.026355244,0.06500347,4.994820594787598,0.9964666168858134,0.01060975873117038,0.001101200595871113,0.08330967416246185,0.032403275,0.034901667,0.0136068035,-0.08235078,-0.02232257,-0.0023411787,0,0,0,0,0,0,0,0,0,0,0,0,0,0,0,0,0,0,0,0,0,0,0,0,0,0,0,0
105,2.1,-0.025031287,0.06624276,4.995345592498779,0.9964855665405865,0.00909268907049824,0.0005904148626662174,0.08326758127893388,0.033708066,0.02725459,0.012589907,-0.07685363,-0.0051823007,-0.00092774467,0,0,0,0,0,0,0,0,0,0,0,0,0,0,0,0,0,0,0,0,0,0,0,0,0,0,0,0
106,2.12,-0.023662934,0.06719879,4.995831489562988,0.9964978288488865,0.007725077560231738,0.0005255904865307699,0.0832593780350549,0.034685638,0.020725727,0.011510843,-0.066994525,0.008760832,-1.9945972e-05,0,0,0,0,0,0,0,0,0,0,0,0,0,0,0,0,0,0,0,0,0,0,0,0,0,0,0,0
107,2.14,-0.022257745,0.067914374,4.9962663650512695,0.9965077469447525,0.006488058531714201,0.00037512419311799936,0.08324706996298215,0.035542443,0.015212155,0.01010096,-0.06450886,-0.010978585,-0.0008724837,0,0,0,0,0,0,0,0,0,0,0,0,0,0,0,0,0,0,0,0,0,0,0,0,0,0,0,0
108,2.16,-0.02082409,0.06842795,4.996651649475098,0.9965169267565928,0.005320976684847974,-0.00010174016896073729,0.08322073986484962,0.036063924,0.010612464,0.009025912,-0.060466234,-0.015350613,-0.0006695226,0,0,0,0,0,0,0,0,0,0,0,0,0,0,0,0,0,0,0,0,0,0,0,0,0,0,0,0
109,2.18,-0.01937808,0.06877456,4.997000217437744,0.9965223156834302,0.004294097764075283,-0.00035705376677154076,0.08321482789704204,0.036190186,0.0068482244,0.008235532,-0.050574414,0.003308702,0.0005874258,0,0,0,0,0,0,0,0,0,0,0,0,0,0,0,0,0,0,0,0,0,0,0,0,0,0,0,0
110,2.2,-0.017930701,0.06898569,4.997311115264893,0.996525014718734,0.003410245242238605,-0.00039127374268909255,0.08322326701153389,0.036165584,0.0038240445,0.0071602617,-0.04590996,0.00033010056,0.00044847088,0,0,0,0,0,0,0,0,0,0,0,0,0,0,0,0,0,0,0,0,0,0,0,0,0,0,0,0
111,2.22,-0.016486784,0.06908925,4.997578144073486,0.9965277932568968,0.0025868171992907596,-0.0006720419791180731,0.08321787069431434,0.035984866,0.0014560962,0.0060808547,-0.04431163,-0.014200259,-0.00016708802,0,0,0,0,0,0,0,0,0,0,0,0,0,0,0,0,0,0,0,0,0,0,0,0,0,0,0,0
112,2.24,-0.015056451,0.069110066,4.997810363769531,0.9965295338521967,0.0018650840990515872,-0.0010233580502984898,0.0832127535893878,0.03547625,-0.00032524415,0.0053903917,-0.036273472,-0.005953025,0.00051024894,0,0,0,0,0,0,0,0,0,0,0,0,0,0,0,0,0,0,0,0,0,0,0,0,0,0,0,0
113,2.2600000000000002,-0.013651654,0.0690698,4.998015403747559,0.9965293311078004,0.0013005719215361472,-0.0011084753919688027,0.08322482824747816,0.034746133,-0.0016161798,0.004685727,-0.028934302,0.003973609,0.0010399614,0,0,0,0,0,0,0,0,0,0,0,0,0,0,0,0,0,0,0,0,0,0,0,0,0,0,0,0
114,2.2800000000000002,-0.012277582,0.06898621,4.998188018798828,0.996528941963154,0.000807391686148385,-0.0011993095326968807,0.08323447365789417,0.033941485,-0.0025021913,0.0037728243,-0.02839648,-0.0059418986,0.0004315196,0,0,0,0,0,0,0,0,0,0,0,0,0,0,0,0,0,0,0,0,0,0,0,0,0,0,0,0
115,2.3000000000000003,-0.01093879,0.06887452,4.99832820892334,0.9965289373311473,0.0003496497102521987,-0.0014823782489095192,0.08323315061597314,0.03295561,-0.0030260303,0.0030811483,-0.025060935,-0.00995785,0.00029249283,0,0,0,0,0,0,0,0,0,0,0,0,0,0,0,0,0,0,0,0,0,0,0,0,0,0,0,0
116,2.32,-0.0096443165,0.0687482,4.998445510864258,0.9965282083242223,1.3569028684810093e-05,-0.0016559465421328717,0.08323933968410839,0.0317407,-0.0032490615,0.0026175648,-0.017000439,0.0009014702,0.0008980669,0,0,0,0,0,0,0,0,0,0,0,0,0,0,0,0,0,0,0,0,0,0,0,0,0,0,0,0
117,2.34,-0.00840052,0.06861746,4.998542308807373,0.9965270624775726,-0.00021500733265303638,-0.0016682511572867387,0.08325253425417938,0.030445827,-0.0032599624,0.0019974997,-0.014306522,0.0015668811,0.0007814472,0,0,0,0,0,0,0,0,0,0,0,0,0,0,0,0,0,0,0,0,0,0,0,0,0,0,0,0
118,2.36,-0.0072092786,0.06848969,4.998612880706787,0.9965264630082283,-0.0004340901667840871,-0.0017937628968582573,0.08325624604020468,0.02909814,-0.0031027605,0.0013500572,-0.015031841,-0.0066283206,0.00024227265,0,0,0,0,0,0,0,0,0,0,0,0,0,0,0,0,0,0,0,0,0,0,0,0,0,0,0,0
119,2.38,-0.006074786,0.068371356,4.998661994934082,0.9965260365072559,-0.0006128960641964717,-0.0019776916930168875,0.0832560607831106,0.027599763,-0.0027943684,0.0009619498,-0.010283944,-0.002930782,0.00043662314,0,0,0,0,0,0,0,0,0,0,0,0,0,0,0,0,0,0,0,0,0,0,0,0,0,0,0,0
120,2.4,-0.005002674,0.06826746,4.998697757720947,0.9965253181693275,-0.0006843362793272593,-0.0020051768932917353,0.08326344454203113,0.026001496,-0.0023926923,0.0006140637,-0.0050365445,0.0041484116,0.00070865493,0,0,0,0,0,0,0,0,0,0,0,0,0,0,0,0,0,0,0,0,0,0,0,0,0,0,0,0
121,2.42,-0.0039945217,0.06818042,4.998716354370117,0.9965248238673917,-0.0007164197090283233,-0.0019989007527481113,0.08326924134784137,0.024407584,-0.001956104,0.0001273227,-0.0058610686,1.0547714e-05,0.0003114141,0,0,0,0,0,0,0,0,0,0,0,0,0,0,0,0,0,0,0,0,0,0,0,0,0,0,0,0
122,2.44,-0.0030505988,0.068111405,4.99871826171875,0.9965248038126886,-0.0007661042851292096,-0.002098616341418169,0.0832665856136662,0.022775013,-0.001490034,-0.00025003913,-0.005903374,-0.002986179,7.4893695e-05,0,0,0,0,0,0,0,0,0,0,0,0,0,0,0,0,0,0,0,0,0,0,0,0,0,0,0,0
123,2.46,-0.0021736363,0.06806157,4.998708248138428,0.996524775031167,-0.0007665619194001955,-0.0021512877292226306,0.08326558168302173,0.021065826,-0.0010038435,-0.00045301684,-0.001323349,0.0031290208,0.00034907387,0,0,0,0,0,0,0,0,0,0,0,0,0,0,0,0,0,0,0,0,0,0,0,0,0,0,0,0
124,2.48,-0.0013652082,0.06803078,4.9986891746521,0.9965246996349307,-0.0006997079083001358,-0.0020929551152481323,0.08326855928403991,0.01936452,-0.0005448944,-0.0007242871,0.00039219885,0.005066026,0.00031200235,0,0,0,0,0,0,0,0,0,0,0,0,0,0,0,0,0,0,0,0,0,0,0,0,0,0,0,0
125,2.5,-0.0006238507,0.068017356,4.998658180236816,0.9965249710940741,-0.0006453152666180831,-0.00207739720440069,0.08326613942663719,0.017706614,-0.0001350703,-0.0010429098,-0.0017902039,0.00073948916,-4.141406e-05,0,0,0,0,0,0,0,0,0,0,0,0,0,0,0,0,0,0,0,0,0,0,0,0,0,0,0,0
126,2.52,5.1123337e-05,0.068019606,4.998617649078369,0.9965254591048205,-0.0006069925374900194,-0.002106738236967984,0.08325984968751095,0.016038423,0.00024093468,-0.0012107303,-0.00072035746,0.0021050184,-8.284388e-06,0,0,0,0,0,0,0,0,0,0,0,0,0,0,0,0,0,0,0,0,0,0,0,0,0,0,0,0
127,2.54,0.0006592674,0.06803611,4.998571395874023,0.9965258295918028,-0.0005217619517879823,-0.0020516436068481626,0.08325736891918625,0.014376928,0.00057250995,-0.0013164665,0.0023336182,0.0067067174,0.00017368534,0,0,0,0,0,0,0,0,0,0,0,0,0,0,0,0,0,0,0,0,0,0,0,0,0,0,0,0
128,2.56,0.0012022881,0.068064444,4.998518943786621,0.9965262623085769,-0.0004147279844179419,-0.001957758163317701,0.083255052176853,0.012788198,0.0008302359,-0.0015049364,0.001424731,0.005276381,-6.7752153e-06,0,0,0,0,0,0,0,0,0,0,0,0,0,0,0,0,0,0,0,0,0,0,0,0,0,0,0,0
129,2.58,0.001683113,0.068101674,4.998459339141846,0.9965269553812386,-0.0003428883723277453,-0.001921205182659077,0.08324793448974632,0.01125878,0.0010204064,-0.0016557123,-0.00041491457,0.0031441925,-0.00016879244,0,0,0,0,0,0,0,0,0,0,0,0,0,0,0,0,0,0,0,0,0,0,0,0,0,0,0,0
130,2.6,0.0021033254,0.06814551,4.998397350311279,0.9965276341779811,-0.00027383274752329175,-0.0018722607247759764,0.08324117956300586,0.009758721,0.0011616894,-0.0016881732,0.0011940463,0.006252393,-1.2088443e-05,0,0,0,0,0,0,0,0,0,0,0,0,0,0,0,0,0,0,0,0,0,0,0,0,0,0,0,0
131,2.62,0.0024647461,0.06819387,4.99833345413208,0.9965281697394918,-0.0001728916283442525,-0.0017566171799047146,0.08323755955232505,0.008328737,0.0012421627,-0.0017358069,0.0022730303,0.007996598,3.679398e-05,0,0,0,0,0,0,0,0,0,0,0,0,0,0,0,0,0,0,0,0,0,0,0,0,0,0,0,0
132,2.64,0.0027709596,0.06824399,4.998266696929932,0.9965288099168599,-8.400492038276641e-05,-0.0016550722573027167,0.08323211330179721,0.006996527,0.0012519703,-0.0018273169,0.00026082972,0.005669487,-0.00012736632,0,0,0,0,0,0,0,0,0,0,0,0,0,0,0,0,0,0,0,0,0,0,0,0,0,0,0,0
133,2.66,0.003025346,0.06829341,4.99819803237915,0.9965295523796907,-2.8451222916002283e-05,-0.0015882775189739419,0.08322456247397121,0.005731921,0.0012110776,-0.0018437655,-0.0005410952,0.005804084,-0.00010860065,0,0,0,0,0,0,0,0,0,0,0,0,0,0,0,0,0,0,0,0,0,0,0,0,0,0,0,0
134,2.68,0.003230366,0.068340436,4.998129367828369,0.9965301326850147,3.51737288650442e-05,-0.001483465954635291,0.08321954543469526,0.0045333095,0.0011316737,-0.0018037659,0.000812913,0.008382915,4.268254e-05,0,0,0,0,0,0,0,0,0,0,0,0,0,0,0,0,0,0,0,0,0,0,0,0,0,0,0,0
135,2.7,0.003389382,0.06838334,4.998061180114746,0.9965306142342115,0.00011053272806955048,-0.0013515040047818512,0.08321596068919951,0.0034357258,0.0010041621,-0.0018054374,0.00034971331,0.007885812,7.6049305e-06,0,0,0,0,0,0,0,0,0,0,0,0,0,0,0,0,0,0,0,0,0,0,0,0,0,0,0,0
136,2.72,0.0035065287,0.06842022,4.997992515563965,0.9965311884663828,0.00015905192946332828,-0.0012529328131232437,0.08321054786280396,0.0024349962,0.0008335,-0.0018037636,-0.0014948467,0.0062780483,-6.11356e-05,0,0,0,0,0,0,0,0,0,0,0,0,0,0,0,0,0,0,0,0,0,0,0,0,0,0,0,0
137,2.74,0.0035851337,0.06844977,4.997926712036133,0.9965317097261385,0.00018799691602752316,-0.0011601319702469713,0.0832055903246316,0.00150732,0.0006402295,-0.0017337756,-0.0014149686,0.0075342986,5.0397255e-05,0,0,0,0,0,0,0,0,0,0,0,0,0,0,0,0,0,0,0,0,0,0,0,0,0,0,0,0
138,2.7600000000000002,0.0036282786,0.068471245,4.997863292694092,0.9965320359934513,0.0002277240521339075,-0.001034178932345064,0.08320324425428843,0.0006666473,0.0004282813,-0.0016585998,-0.0007662027,0.008595153,0.00013652151,0,0,0,0,0,0,0,0,0,0,0,0,0,0,0,0,0,0,0,0,0,0,0,0,0,0,0,0
139,2.7800000000000002,0.0036398605,0.06848377,4.997802257537842,0.9965323287016652,0.00026289055039816595,-0.000914477430937646,0.08320103648406672,-7.157744e-05,0.00019309498,-0.0016161113,-0.0019301951,0.0071869367,8.7153196e-05,0,0,0,0,0,0,0,0,0,0,0,0,0,0,0,0,0,0,0,0,0,0,0,0,0,0,0,0
140,2.8000000000000003,0.003623671,0.0684866,4.997744083404541,0.9965326501993104,0.00027265506360754275,-0.000822406785018328,0.08319811532141344,-0.0007261062,-5.3445034e-05,-0.0015447671,-0.003005028,0.006704197,0.00011199584,0,0,0,0,0,0,0,0,0,0,0,0,0,0,0,0,0,0,0,0,0,0,0,0,0,0,0,0
141,2.82,0.0035827514,0.068479575,4.997688293457031,0.9965328246127638,0.00027692067774137685,-0.0007193345600911983,0.0831969671444527,-0.0013067914,-0.00029757118,-0.0014366589,-0.0025447744,0.00787764,0.00022819215,0,0,0,0,0,0,0,0,0,0,0,0,0,0,0,0,0,0,0,0,0,0,0,0,0,0,0,0
142,2.84,0.0035203262,0.068462834,4.997637748718262,0.9965328607548931,0.0002882865670372389,-0.0006027574687361555,0.08319742189489823,-0.001799331,-0.0005407957,-0.0013488563,-0.002579205,0.0075839423,0.0002514197,0,0,0,0,0,0,0,0,0,0,0,0,0,0,0,0,0,0,0,0,0,0,0,0,0,0,0,0
143,2.86,0.0034399636,0.06843636,4.997589588165283,0.9965329063576684,0.0002875015672733299,-0.0005078837024127692,0.08319751164146746,-0.0022067165,-0.00078274636,-0.0012721142,-0.00368956,0.006326234,0.0002308371,0,0,0,0,0,0,0,0,0,0,0,0,0,0,0,0,0,0,0,0,0,0,0,0,0,0,0,0
144,2.88,0.0033446809,0.06840043,4.9975457191467285,0.9965329064392376,0.00027113608765108284,-0.0004259647957263464,0.08319802535505602,-0.002547416,-0.0010118475,-0.0011648114,-0.003992403,0.006575869,0.0003028107,0,0,0,0,0,0,0,0,0,0,0,0,0,0,0,0,0,0,0,0,0,0,0,0,0,0,0,0
145,2.9,0.0032370794,0.06835571,4.9975056648254395,0.9965327504606936,0.0002577565982599898,-0.0003316594237482899,0.08320036552087949,-0.0028209565,-0.001222576,-0.0010519011,-0.003577472,0.00703893,0.0003763549,0,0,0,0,0,0,0,0,0,0,0,0,0,0,0,0,0,0,0,0,0,0,0,0,0,0,0,0
146,2.92,0.0031200107,0.068302855,4.997470378875732,0.996532537692773,0.0002461518996555796,-0.00024246508026062448,0.08320325678439047,-0.0030213364,-0.0014182497,-0.00096210575,-0.0039771986,0.006093259,0.00036793159,0,0,0,0,0,0,0,0,0,0,0,0,0,0,0,0,0,0,0,0,0,0,0,0,0,0,0,0
147,2.94,0.0029961998,0.06824252,4.997437953948975,0.9965323350461435,0.00022294509923013542,-0.00017441486962477764,0.08320591975584857,-0.0031611207,-0.0015958473,-0.0008676633,-0.004641048,0.0054267114,0.00038244104,0,0,0,0,0,0,0,0,0,0,0,0,0,0,0,0,0,0,0,0,0,0,0,0,0,0,0,0
148,2.96,0.0028677925,0.06817557,4.997410297393799,0.9965320460652608,0.00019474488753911897,-0.00010782842519237556,0.0832095644288831,-0.003251492,-0.0017481832,-0.00075626455,-0.0044781035,0.005809498,0.0004524418,0,0,0,0,0,0,0,0,0,0,0,0,0,0,0,0,0,0,0,0,0,0,0,0,0,0,0,0
149,2.98,0.0027368125,0.06810304,4.997386455535889,0.9965316591157976,0.00017208399791437468,-3.669051110867324e-05,0.08321431019253779,-0.0032889498,-0.0018757884,-0.0006575664,-0.0042763334,0.0055606584,0.0004770842,0,0,0,0,0,0,0,0,0,0,0,0,0,0,0,0,0,0,0,0,0,0,0,0,0,0,0,0
150,3.0,0.002605371,0.068025835,4.997366428375244,0.9965312724078224,0.0001478649706062476,2.0048362302585592e-05,0.08321899330837997,-0.0032765083,-0.0019815746,-0.00057340955,-0.004694042,0.00463417,0.00046437082,0,0,0,0,0,0,0,0,0,0,0,0,0,0,0,0,0,0,0,0,0,0,0,0,0,0,0,0
151,3.02,0.0024752005,0.06794489,4.997349262237549,0.9965308770311244,0.00011699345346265986,6.38643716279113e-05,0.08322375476660336,-0.003227282,-0.0020625375,-0.0004804287,-0.0048820972,0.00447401,0.00049497356,0,0,0,0,0,0,0,0,0,0,0,0,0,0,0,0,0,0,0,0,0,0,0,0,0,0,0,0
152,3.04,0.0023476467,0.06786124,4.9973368644714355,0.9965304062099696,8.811182204387362e-05,0.00011028851651915462,0.08322937925842626,-0.0031453099,-0.0021165344,-0.0003862724,-0.0045776027,0.0046192687,0.0005335778,0,0,0,0,0,0,0,0,0,0,0,0,0,0,0,0,0,0,0,0,0,0,0,0,0,0,0,0
153,3.06,0.0022240635,0.06777593,4.9973273277282715,0.9965299071020093,6.382685439982115e-05,0.0001527723477025373,0.0832353100432945,-0.0030291432,-0.0021469186,-0.00030904618,-0.004555609,0.0040145656,0.00052459777,0,0,0,0,0,0,0,0,0,0,0,0,0,0,0,0,0,0,0,0,0,0,0,0,0,0,0,0
154,3.08,0.0021056929,0.06768982,4.997321128845215,0.9965294347539293,3.747495385554981e-05,0.0001808474333737832,0.08324092478371208,-0.0028866394,-0.0021555715,-0.0002374014,-0.0047864253,0.003432669,0.0005183635,0,0,0,0,0,0,0,0,0,0,0,0,0,0,0,0,0,0,0,0,0,0,0,0,0,0,0,0
155,3.1,0.001993386,0.06760383,4.997317790985107,0.9965289412605983,1.0013839560404105e-05,0.0002041787252977567,0.08324678636921866,-0.002726613,-0.0021411872,-0.0001616677,-0.004664557,0.003497428,0.00054424367,0,0,0,0,0,0,0,0,0,0,0,0,0,0,0,0,0,0,0,0,0,0,0,0,0,0,0,0
156,3.12,0.0018878216,0.06751886,4.997316837310791,0.9965284127258617,-1.2837744671843838e-05,0.00022869234808087612,0.08325304898366584,-0.002549289,-0.002105232,-9.559477e-05,-0.004419674,0.0033401847,0.0005493174,0,0,0,0,0,0,0,0,0,0,0,0,0,0,0,0,0,0,0,0,0,0,0,0,0,0,0,0
157,3.14,0.0017896779,0.0674357,4.997318744659424,0.9965279056422021,-3.2956209076715414e-05,0.00024480658895811305,0.08325906713378896,-0.0023566273,-0.0020513504,-4.239406e-05,-0.0044563264,0.0027489313,0.00052764366,0,0,0,0,0,0,0,0,0,0,0,0,0,0,0,0,0,0,0,0,0,0,0,0,0,0,0,0
158,3.16,0.0016994135,0.06735502,4.9973225593566895,0.9965274255717428,-5.3616815334903755e-05,0.00025166285506588137,0.08326478171711511,-0.0021565852,-0.0019808256,9.907841e-06,-0.004468538,0.0025328067,0.0005265603,0,0,0,0,0,0,0,0,0,0,0,0,0,0,0,0,0,0,0,0,0,0,0,0,0,0,0,0
159,3.18,0.0016172231,0.0672775,4.997328281402588,0.996526930337238,-7.189492577044223e-05,0.0002583925599001672,0.08327067417192166,-0.0019529206,-0.0018943159,5.9825594e-05,-0.0042460468,0.0025893187,0.00053436914,0,0,0,0,0,0,0,0,0,0,0,0,0,0,0,0,0,0,0,0,0,0,0,0,0,0,0,0
160,3.2,0.0015432633,0.06720369,4.997335910797119,0.9965264436942112,-8.587888175016692e-05,0.0002632953920829574,0.08327646917660611,-0.001745202,-0.0017947336,9.796542e-05,-0.004106649,0.0022722348,0.0005159664,0,0,0,0,0,0,0,0,0,0,0,0,0,0,0,0,0,0,0,0,0,0,0,0,0,0,0,0
161,3.22,0.0014776362,0.0671341,4.997344970703125,0.9965259976056784,-9.831001476744725e-05,0.0002601284320856334,0.08328180332069911,-0.001537357,-0.0016849051,0.00012922444,-0.004112242,0.0019003114,0.0004943515,0,0,0,0,0,0,0,0,0,0,0,0,0,0,0,0,0,0,0,0,0,0,0,0,0,0,0,0
162,3.24,0.0014202305,0.06706907,4.997355937957764,0.9965255735035582,-0.00010958376632891574,0.0002534083324934081,0.08328688449581774,-0.001334595,-0.001566014,0.00015990177,-0.0039895326,0.0019045619,0.0004916137,0,0,0,0,0,0,0,0,0,0,0,0,0,0,0,0,0,0,0,0,0,0,0,0,0,0,0,0
163,3.2600000000000002,0.0013708216,0.06700896,4.9973673820495605,0.9965251531821727,-0.0001173656158533739,0.000247667996871574,0.08329192014308845,-0.0011373187,-0.0014399,0.00018345272,-0.0037990566,0.0018684642,0.00048131184,0,0,0,0,0,0,0,0,0,0,0,0,0,0,0,0,0,0,0,0,0,0,0,0,0,0,0,0
164,3.2800000000000002,0.0013291956,0.06695399,4.997378826141357,0.9965247687733002,-0.00012234467443580086,0.00023841657860014208,0.08329653900754844,-0.0009458603,-0.0013093388,0.00019750513,-0.0037391454,0.0015750708,0.00045488143,0,0,0,0,0,0,0,0,0,0,0,0,0,0,0,0,0,0,0,0,0,0,0,0,0,0,0,0
165,3.3000000000000003,0.0012950504,0.066904284,4.997391223907471,0.9965244246377813,-0.00012623377563949494,0.00022429377132305222,0.0833006894189776,-0.00076392526,-0.0011760993,0.00020926393,-0.0036888814,0.0014476173,0.00043754108,0,0,0,0,0,0,0,0,0,0,0,0,0,0,0,0,0,0,0,0,0,0,0,0,0,0,0,0
166,3.3200000000000003,0.0012679528,0.06685995,4.9974045753479,0.9965240985448848,-0.00012802771392095205,0.0002103856648937872,0.0833046239177703,-0.0005934356,-0.0010414177,0.00021912497,-0.0035367778,0.0015214956,0.0004286712,0,0,0,0,0,0,0,0,0,0,0,0,0,0,0,0,0,0,0,0,0,0,0,0,0,0,0,0
167,3.34,0.0012474619,0.066821,4.99741792678833,0.9965237949256264,-0.00012700898109015423,0.00019685544286428126,0.08330829048588995,-0.00043347082,-0.0009072919,0.00022170942,-0.0034299146,0.0014235178,0.00040771917,0,0,0,0,0,0,0,0,0,0,0,0,0,0,0,0,0,0,0,0,0,0,0,0,0,0,0,0
168,3.36,0.0012331471,0.066787384,4.99743127822876,0.99652353411856,-0.00012464498469451617,0.00018009806610710548,0.08331145165083449,-0.0002850421,-0.0007755444,0.00021929892,-0.0034033563,0.001255391,0.00038324328,0,0,0,0,0,0,0,0,0,0,0,0,0,0,0,0,0,0,0,0,0,0,0,0,0,0,0,0
169,3.38,0.0012244992,0.066758975,4.9974446296691895,0.9965233038027439,-0.00012121209098631858,0.00016200242495312088,0.083314248726779,-0.00015030462,-0.00064714934,0.00021614697,-0.003318028,0.0012930804,0.00037004382,0,0,0,0,0,0,0,0,0,0,0,0,0,0,0,0,0,0,0,0,0,0,0,0,0,0,0,0
170,3.4,0.0012209701,0.06673562,4.997457981109619,0.996523093005072,-0.00011575858874507403,0.00014559820469998855,0.08331680808045944,-2.8839864e-05,-0.00052328984,0.00020946888,-0.0032091425,0.0013492075,0.00035602177,0,0,0,0,0,0,0,0,0,0,0,0,0,0,0,0,0,0,0,0,0,0,0,0,0,0,0,0
171,3.42,0.0012220527,0.06671709,4.997470855712891,0.9965229137829609,-0.00010886326902682327,0.0001287754472147008,0.08331898865919228,8.026846e-05,-0.00040538557,0.00019743347,-0.0031757369,0.0012555507,0.00033344145,0,0,0,0,0,0,0,0,0,0,0,0,0,0,0,0,0,0,0,0,0,0,0,0,0,0,0,0
172,3.44,0.0012272368,0.06670314,4.9974822998046875,0.9965227710715154,-0.00010151217454890369,0.00011039624117102391,0.08332073117715837,0.000176028,-0.0002942294,0.00018410347,-0.0031536128,0.0012329868,0.0003157211,0,0,0,0,0,0,0,0,0,0,0,0,0,0,0,0,0,0,0,0,0,0,0,0,0,0,0,0
173,3.46,0.0012359754,0.0666935,4.997493743896484,0.9965226465561353,-9.327782352095334e-05,9.309647527086164e-05,0.0833222511280732,0.00025814818,-0.00019028115,0.00017077112,-0.0030826314,0.0013314183,0.0003045167,0,0,0,0,0,0,0,0,0,0,0,0,0,0,0,0,0,0,0,0,0,0,0,0,0,0,0,0
174,3.48,0.0012477487,0.066687874,4.997505187988281,0.9965225452138063,-8.394370846222254e-05,7.738028598436604e-05,0.08332348916327491,0.00032800218,-9.428979e-05,0.00015467552,-0.0030431612,0.0013556916,0.00028860418,0,0,0,0,0,0,0,0,0,0,0,0,0,0,0,0,0,0,0,0,0,0,0,0,0,0,0,0
175,3.5,0.0012620828,0.0666859,4.99751615524292,0.9965224739788547,-7.436439000011069e-05,6.13021270485926e-05,0.08332436358622515,0.00038614057,-6.779097e-06,0.00013634584,-0.0030469103,0.0013240639,0.0002703245,0,0,0,0,0,0,0,0,0,0,0,0,0,0,0,0,0,0,0,0,0,0,0,0,0,0,0,0
176,3.52,0.001278502,0.06668728,4.997525691986084,0.9965224271995223,-6.467980477861725e-05,4.545747978366023e-05,0.0833249412751838,0.0004322857,7.2168965e-05,0.000118166405,-0.0030216058,0.0013905591,0.00025871012,0,0,0,0,0,0,0,0,0,0,0,0,0,0,0,0,0,0,0,0,0,0,0,0,0,0,0,0
177,3.54,0.0012965406,0.06669162,4.997533798217773,0.9965223955358811,-5.4479660104578764e-05,3.1570805494903434e-05,0.08332533366677844,0.0004673689,0.00014237409,9.9364705e-05,-0.0029917066,0.0014850125,0.0002490057,0,0,0,0,0,0,0,0,0,0,0,0,0,0,0,0,0,0,0,0,0,0,0,0,0,0,0,0
178,3.56,0.0013157855,0.06669859,4.997541427612305,0.9965223833999014,-4.423477562436255e-05,1.8739493654643772e-05,0.08332548874801896,0.00049277145,0.00020366572,7.923264e-05,-0.0030058892,0.0014966507,0.00023562161,0,0,0,0,0,0,0,0,0,0,0,0,0,0,0,0,0,0,0,0,0,0,0,0,0,0,0,0
179,3.58,0.0013358592,0.06670785,4.997549057006836,0.9965223920672274,-3.440084772073165e-05,6.003920493116e-06,0.08332539162311775,0.0005088142,0.00025625437,5.9825314e-05,-0.0030187366,0.0015239557,0.00022498584,0,0,0,0,0,0,0,0,0,0,0,0,0,0,0,0,0,0,0,0,0,0,0,0,0,0,0,0
180,3.6,0.0013563929,0.06671904,4.997556686401367,0.9965224134978043,-2.463921472816301e-05,-5.336703539450729e-06,0.0833251388294058,0.00051594485,0.00030040284,4.137414e-05,-0.0030068671,0.001625191,0.0002190136,0,0,0,0,0,0,0,0,0,0,0,0,0,0,0,0,0,0,0,0,0,0,0,0,0,0,0,0
181,3.62,0.0013770566,0.066731825,4.997562408447266,0.9965224465075712,-1.4960348725018848e-05,-1.4877437666923685e-05,0.08332474519261734,0.0005155629,0.00033623632,2.202884e-05,-0.0030191422,0.0016861607,0.00021106977,0,0,0,0,0,0,0,0,0,0,0,0,0,0,0,0,0,0,0,0,0,0,0,0,0,0,0,0
182,3.64,0.0013975722,0.0667459,4.997567653656006,0.9965224929869638,-5.953132620267352e-06,-2.3832034344870604e-05,0.08332418837073091,0.0005086107,0.00036410923,2.6263929e-06,-0.003059994,0.0017053632,0.00020238971,0,0,0,0,0,0,0,0,0,0,0,0,0,0,0,0,0,0,0,0,0,0,0,0,0,0,0,0
183,3.66,0.0014176833,0.06676092,4.9975714683532715,0.9965225498730508,2.396021370818804e-06,-3.204753533039001e-05,0.08332350545750894,0.00049542234,0.00038464114,-1.5223975e-05,-0.0030735715,0.0017745816,0.0001981166,0,0,0,0,0,0,0,0,0,0,0,0,0,0,0,0,0,0,0,0,0,0,0,0,0,0,0,0
184,3.68,0.0014371567,0.066776626,4.997575283050537,0.9965226116487771,1.0491829860813746e-05,-3.85411925196642e-05,0.08332276325949985,0.00047695255,0.00039825696,-3.1891843e-05,-0.0030800102,0.0018616659,0.00019526864,0,0,0,0,0,0,0,0,0,0,0,0,0,0,0,0,0,0,0,0,0,0,0,0,0,0,0,0
185,3.7,0.0014558072,0.06679275,4.997579097747803,0.9965226808232638,1.8050540440142638e-05,-4.383621971046046e-05,0.0833219320310044,0.00045443495,0.00040531883,-4.836897e-05,-0.0031185474,0.0018953772,0.00019053169,0,0,0,0,0,0,0,0,0,0,0,0,0,0,0,0,0,0,0,0,0,0,0,0,0,0,0,0
186,3.72,0.0014734858,0.06680903,4.997581481933594,0.9965227567818419,2.4685750999918752e-05,-4.871703698766154e-05,0.08332101915592675,0.00042839674,0.00040647096,-6.390908e-05,-0.0031596932,0.0019280142,0.00018717289,0,0,0,0,0,0,0,0,0,0,0,0,0,0,0,0,0,0,0,0,0,0,0,0,0,0,0,0
187,3.74,0.0014900588,0.06682524,4.997583389282227,0.9965228358544721,3.065125507556374e-05,-5.249491878521065e-05,0.08332006916310856,0.0003992927,0.00040241532,-7.773497e-05,-0.003177233,0.0020052209,0.00018722004,0,0,0,0,0,0,0,0,0,0,0,0,0,0,0,0,0,0,0,0,0,0,0,0,0,0,0,0
188,3.7600000000000002,0.0015054236,0.06684121,4.997583866119385,0.9965229143489929,3.62014778140012e-05,-5.488262414208266e-05,0.08331912658411762,0.00036815507,0.000393645,-9.0795635e-05,-0.0031982444,0.0020566045,0.0001867301,0,0,0,0,0,0,0,0,0,0,0,0,0,0,0,0,0,0,0,0,0,0,0,0,0,0,0,0
189,3.7800000000000002,0.0015195156,0.066856734,4.997583866119385,0.9965229934899379,4.103907348539867e-05,-5.672653144910269e-05,0.08331817655078773,0.00033573818,0.00038063608,-0.000102754704,-0.0032397318,0.0020752696,0.00018529702,0,0,0,0,0,0,0,0,0,0,0,0,0,0,0,0,0,0,0,0,0,0,0,0,0,0,0,0
190,3.8000000000000003,0.0015322902,0.06687166,4.997583866119385,0.9965230720546524,4.503211227273394e-05,-5.8061671849624164e-05,0.08331723389376977,0.00030231863,0.00036405027,-0.000112401154,-0.003276377,0.00212023,0.00018643282,0,0,0,0,0,0,0,0,0,0,0,0,0,0,0,0,0,0,0,0,0,0,0,0,0,0,0,0
191,3.8200000000000003,0.0015437165,0.06688585,4.997583866119385,0.9965231494597432,4.8354786595624246e-05,-5.834112706574555e-05,0.08331630602086212,0.00026846354,0.00034455067,-0.00012042634,-0.0032984484,0.002175265,0.00018847907,0,0,0,0,0,0,0,0,0,0,0,0,0,0,0,0,0,0,0,0,0,0,0,0,0,0,0,0
192,3.84,0.0015537926,0.066899225,4.997583866119385,0.996523224443843,5.118084227481549e-05,-5.787106530336597e-05,0.08331540779175901,0.00023490956,0.00032264122,-0.00012787452,-0.0033257531,0.002198169,0.00018909473,0,0,0,0,0,0,0,0,0,0,0,0,0,0,0,0,0,0,0,0,0,0,0,0,0,0,0,0
193,3.86,0.001562539,0.0669117,4.997583866119385,0.996523298235786,5.328041868669318e-05,-5.7147079471269084e-05,0.08331452435607521,0.00020199022,0.00029881348,-0.0001346694,-0.0033644692,0.002213901,0.00019063528,0,0,0,0,0,0,0,0,0,0,0,0,0,0,0,0,0,0,0,0,0,0,0,0,0,0,0,0
194,3.88,0.0015699838,0.06692318,4.997583866119385,0.9965233671239471,5.475635753664273e-05,-5.5920345907127235e-05,0.08331370025756493,0.00016990247,0.00027365942,-0.00014050584,-0.0033831177,0.0022521282,0.00019405952,0,0,0,0,0,0,0,0,0,0,0,0,0,0,0,0,0,0,0,0,0,0,0,0,0,0,0,0
195,3.9,0.0015761697,0.06693364,4.997583866119385,0.996523430482854,5.5875535511662916e-05,-5.4011440394591774e-05,0.08331294292829634,0.00013912506,0.00024758946,-0.00014620645,-0.003400397,0.0022778849,0.00019669253,0,0,0,0,0,0,0,0,0,0,0,0,0,0,0,0,0,0,0,0,0,0,0,0,0,0,0,0
196,3.92,0.0015811572,0.06694305,4.99758243560791,0.996523489536417,5.648300270035402e-05,-5.186435168403212e-05,0.0833122375280013,0.00011001356,0.0002209507,-0.00015167576,-0.0034320387,0.0022840623,0.00019846497,0,0,0,0,0,0,0,0,0,0,0,0,0,0,0,0,0,0,0,0,0,0,0,0,0,0,0,0
197,3.94,0.0015850151,0.06695139,4.9975810050964355,0.9965235486282883,5.649077600317923e-05,-4.9593058393879146e-05,0.08331153208652634,8.2633094e-05,0.00019421196,-0.00015554532,-0.0034552512,0.0022994836,0.00020136652,0,0,0,0,0,0,0,0,0,0,0,0,0,0,0,0,0,0,0,0,0,0,0,0,0,0,0,0
198,3.96,0.001587815,0.06695866,4.997579574584961,0.9965235990656113,5.616948576707098e-05,-4.6909097897444756e-05,0.08331093055443657,5.7156558e-05,0.00016776628,-0.00015795098,-0.003465829,0.0023219634,0.0002054419,0,0,0,0,0,0,0,0,0,0,0,0,0,0,0,0,0,0,0,0,0,0,0,0,0,0,0,0
199,3.98,0.0015896388,0.066964865,4.997578144073486,0.9965236464232983,5.5527752635740845e-05,-4.3966018828372786e-05,0.08331036611893684,3.3868808e-05,0.00014186336,-0.00015958895,-0.0034874438,0.0023259406,0.00020863162,0,0,0,0,0,0,0,0,0,0,0,0,0,0,0,0,0,0,0,0,0,0,0,0,0,0,0,0
200,4.0,0.0015905759,0.066970065,4.9975762367248535,0.9965236863430748,5.446532207960856e-05,-4.112396696173046e-05,0.08330989076668756,1.2802317e-05,0.00011681573,-0.00016037805,-0.0035051452,0.0023196628,0.00021164589,0,0,0,0,0,0,0,0,0,0,0,0,0,0,0,0,0,0,0,0,0,0,0,0,0,0,0,0
201,4.0200000000000005,0.0015907126,0.06697429,4.997574329376221,0.9965237231628062,5.3135674259829114e-05,-3.832829147829042e-05,0.08330945253259611,-6.154199e-06,9.288827e-05,-0.0001601229,-0.003516132,0.0023254494,0.00021540422,0,0,0,0,0,0,0,0,0,0,0,0,0,0,0,0,0,0,0,0,0,0,0,0,0,0,0,0
202,4.04,0.0015901338,0.06697758,4.997572898864746,0.9965237525429417,5.160695352615305e-05,-3.532513850770884e-05,0.08330910338367174,-2.2951253e-05,7.0266025e-05,-0.00015910485,-0.0035248026,0.0023372187,0.00021898317,0,0,0,0,0,0,0,0,0,0,0,0,0,0,0,0,0,0,0,0,0,0,0,0,0,0,0,0
203,4.0600000000000005,0.0015889289,0.06697998,4.9975714683532715,0.9965237769555741,4.99147589600213e-05,-3.228022367401145e-05,0.08330881363157755,-3.7463793e-05,4.910329e-05,-0.00015779595,-0.0035335564,0.0023298168,0.0002211551,0,0,0,0,0,0,0,0,0,0,0,0,0,0,0,0,0,0,0,0,0,0,0,0,0,0,0,0
204,4.08,0.0015871879,0.06698159,4.997570037841797,0.996523797632512,4.805343236248805e-05,-2.945522618086805e-05,0.08330856843886866,-4.979124e-05,2.9519342e-05,-0.00015613178,-0.0035425373,0.0023214533,0.00022350003,0,0,0,0,0,0,0,0,0,0,0,0,0,0,0,0,0,0,0,0,0,0,0,0,0,0,0,0
205,4.1,0.0015849946,0.06698242,4.997568607330322,0.9965238139559884,4.607497552360648e-05,-2.6698289545360294e-05,0.08330837522667649,-6.0073042e-05,1.1623266e-05,-0.00015419345,-0.0035458128,0.0023214524,0.00022660331,0,0,0,0,0,0,0,0,0,0,0,0,0,0,0,0,0,0,0,0,0,0,0,0,0,0,0,0
206,4.12,0.0015824307,0.06698258,4.997567176818848,0.9965238246799316,4.40848289953532e-05,-2.3995376352725016e-05,0.08330824884746284,-6.8340996e-05,-4.5369206e-06,-0.00015205723,-0.0035473928,0.0023155499,0.00022925086,0,0,0,0,0,0,0,0,0,0,0,0,0,0,0,0,0,0,0,0,0,0,0,0,0,0,0,0
207,4.14,0.0015795749,0.06698212,4.997565746307373,0.9965238329082813,4.2019857499721503e-05,-2.1457940719447633e-05,0.08330815218018142,-7.468255e-05,-1.8945537e-05,-0.0001496683,-0.0035531134,0.0023052953,0.0002313664,0,0,0,0,0,0,0,0,0,0,0,0,0,0,0,0,0,0,0,0,0,0,0,0,0,0,0,0
208,4.16,0.0015765016,0.066981144,4.997564315795898,0.9965238361553396,3.9927773049127505e-05,-1.9164817537221854e-05,0.08330811492723092,-7.926404e-05,-3.1558367e-05,-0.00014688117,-0.003550374,0.0022926775,0.00023321348,0,0,0,0,0,0,0,0,0,0,0,0,0,0,0,0,0,0,0,0,0,0,0,0,0,0,0,0
209,4.18,0.0015732768,0.06697968,4.997562885284424,0.9965238362793686,3.7966748791023214e-05,-1.70727928092883e-05,0.08330811481540121,-8.226691e-05,-4.2437547e-05,-0.00014379124,-0.0035462643,0.0022864323,0.00023541033,0,0,0,0,0,0,0,0,0,0,0,0,0,0,0,0,0,0,0,0,0,0,0,0,0,0,0,0
210,4.2,0.0015699621,0.066977814,4.997562408447266,0.9965238339116542,3.5990605593563875e-05,-1.5018953837178765e-05,0.08330814441052707,-8.3781255e-05,-5.165338e-05,-0.0001406131,-0.0035500124,0.0022843129,0.00023719051,0,0,0,0,0,0,0,0,0,0,0,0,0,0,0,0,0,0,0,0,0,0,0,0,0,0,0,0
211,4.22,0.0015666157,0.06697561,4.997562408447266,0.9965238296694339,3.40276211381046e-05,-1.3169634470310353e-05,0.08330819629332298,-8.387295e-05,-5.918579e-05,-0.00013786173,-0.0035464896,0.0022659062,0.00023820573,0,0,0,0,0,0,0,0,0,0,0,0,0,0,0,0,0,0,0,0,0,0,0,0,0,0,0,0
212,4.24,0.0015632898,0.06697314,4.997562408447266,0.9965238223062349,3.219917837233582e-05,-1.1690011187246616e-05,0.08330828531861612,-8.278418e-05,-6.511994e-05,-0.00013578996,-0.003540195,0.002251836,0.0002395026,0,0,0,0,0,0,0,0,0,0,0,0,0,0,0,0,0,0,0,0,0,0,0,0,0,0,0,0
213,4.26,0.0015600277,0.06697046,4.997562408447266,0.9965238130688959,3.051562532448579e-05,-1.0328884905525038e-05,0.08330839662806562,-8.071289e-05,-6.958673e-05,-0.00013409245,-0.0035344558,0.0022495692,0.00024121215,0,0,0,0,0,0,0,0,0,0,0,0,0,0,0,0,0,0,0,0,0,0,0,0,0,0,0,0
214,4.28,0.0015568672,0.06696763,4.997562408447266,0.9965238007191055,2.8918670274478417e-05,-9.083660046502085e-06,0.08330854506919634,-7.771274e-05,-7.2685216e-05,-0.00013283838,-0.0035323347,0.0022375705,0.00024225365,0,0,0,0,0,0,0,0,0,0,0,0,0,0,0,0,0,0,0,0,0,0,0,0,0,0,0,0
215,4.3,0.001553843,0.06696471,4.997562408447266,0.9965237877384173,2.7418630666651464e-05,-8.136185531208143e-06,0.0833087009471335,-7.3945965e-05,-7.4490796e-05,-0.00013163438,-0.0035256988,0.0022223755,0.00024277372,0,0,0,0,0,0,0,0,0,0,0,0,0,0,0,0,0,0,0,0,0,0,0,0,0,0,0,0
216,4.32,0.001550981,0.066961735,4.997562408447266,0.9965237741275437,2.6078733182530655e-05,-7.379196929832691e-06,0.08330886425851397,-6.9615715e-05,-7.512897e-05,-0.00013049004,-0.0035189644,0.0022184125,0.00024352441,0,0,0,0,0,0,0,0,0,0,0,0,0,0,0,0,0,0,0,0,0,0,0,0,0,0,0,0
217,4.34,0.0015483024,0.06695876,4.997562408447266,0.9965237592689099,2.48756786341171e-05,-6.655347601127859e-06,0.08330904242317654,-6.4787746e-05,-7.472102e-05,-0.00012935279,-0.0035125243,0.0022133896,0.00024388857,0,0,0,0,0,0,0,0,0,0,0,0,0,0,0,0,0,0,0,0,0,0,0,0,0,0,0,0
218,4.36,0.001545826,0.06695582,4.997562408447266,0.9965237444027701,2.3821639113748003e-05,-6.1476623991246656e-06,0.08330922059543129,-5.9532234e-05,-7.338255e-05,-0.00012819169,-0.0035051387,0.0021974286,0.00024358068,0,0,0,0,0,0,0,0,0,0,0,0,0,0,0,0,0,0,0,0,0,0,0,0,0,0,0,0
219,4.38,0.001543565,0.06695295,4.997562408447266,0.9965237289083427,2.2948815733845043e-05,-5.881100156418262e-06,0.08330940619987943,-5.4044565e-05,-7.126284e-05,-0.00012685181,-0.0034986006,0.0021912325,0.00024385052,0,0,0,0,0,0,0,0,0,0,0,0,0,0,0,0,0,0,0,0,0,0,0,0,0,0,0,0
220,4.4,0.0015415262,0.06695018,4.997562408447266,0.9965237140322237,2.2133395052991598e-05,-5.638421456117523e-06,0.08330958438105361,-4.841903e-05,-6.847414e-05,-0.00012556909,-0.0034977517,0.0021910197,0.00024388194,0,0,0,0,0,0,0,0,0,0,0,0,0,0,0,0,0,0,0,0,0,0,0,0,0,0,0,0
221,4.42,0.0015397151,0.06694753,4.997562408447266,0.9965236991527399,2.1396277114557507e-05,-5.514646686807684e-06,0.0833097625655453,-4.2682103e-05,-6.505262e-05,-0.00012433408,-0.0034902198,0.002178335,0.00024316802,0,0,0,0,0,0,0,0,0,0,0,0,0,0,0,0,0,0,0,0,0,0,0,0,0,0,0,0
222,4.44,0.0015381332,0.06694503,4.997562408447266,0.9965236842663051,2.0871848547151714e-05,-5.640844574741652e-06,0.0833099407565281,-3.698537e-05,-6.113002e-05,-0.00012306806,-0.003480242,0.0021683078,0.00024289166,0,0,0,0,0,0,0,0,0,0,0,0,0,0,0,0,0,0,0,0,0,0,0,0,0,0,0,0
223,4.46,0.0015367764,0.06694269,4.997562408447266,0.9965236706173445,2.0507209672277596e-05,-5.801670643773435e-06,0.08331010409985866,-3.1446612e-05,-5.6875546e-05,-0.00012197367,-0.0034758071,0.0021716654,0.0002430357,0,0,0,0,0,0,0,0,0,0,0,0,0,0,0,0,0,0,0,0,0,0,0,0,0,0,0,0
224,4.48,0.0015356381,0.066940516,4.997562408447266,0.9965236575887537,2.0155770435008968e-05,-5.94754831656739e-06,0.08331026001822164,-2.6038622e-05,-5.235689e-05,-0.00012102241,-0.0034766379,0.0021665292,0.00024254191,0,0,0,0,0,0,0,0,0,0,0,0,0,0,0,0,0,0,0,0,0,0,0,0,0,0,0,0
225,4.5,0.0015347132,0.06693854,4.997562408447266,0.9965236445572581,1.9868531051792778e-05,-6.278173948545997e-06,0.08331041594029856,-2.0828154e-05,-4.759078e-05,-0.00011994714,-0.0034700015,0.0021563394,0.00024169438,0,0,0,0,0,0,0,0,0,0,0,0,0,0,0,0,0,0,0,0,0,0,0,0,0,0,0,0
226,4.5200000000000005,0.0015339899,0.06693676,4.997562408447266,0.9965236327626414,1.975807046221767e-05,-6.699002446821474e-06,0.08331055701584292,-1.5937809e-05,-4.2689593e-05,-0.00011888142,-0.0034612617,0.0021571696,0.00024167076,0,0,0,0,0,0,0,0,0,0,0,0,0,0,0,0,0,0,0,0,0,0,0,0,0,0,0,0
227,4.54,0.0015334559,0.06693518,4.997562408447266,0.9965236203451519,1.9767618492210493e-05,-7.0618181214211845e-06,0.08331070551594007,-1.1356195e-05,-3.7779202e-05,-0.00011804932,-0.0034580657,0.0021571685,0.00024132615,0,0,0,0,0,0,0,0,0,0,0,0,0,0,0,0,0,0,0,0,0,0,0,0,0,0,0,0
228,4.5600000000000005,0.0015330995,0.066933796,4.997562408447266,0.996523610409364,1.9791135665277116e-05,-7.504392758688141e-06,0.08331082431881928,-7.0767856e-06,-3.291303e-05,-0.000117303076,-0.0034597928,0.002150892,0.00024011968,0,0,0,0,0,0,0,0,0,0,0,0,0,0,0,0,0,0,0,0,0,0,0,0,0,0,0,0
229,4.58,0.0015329067,0.0669326,4.997562408447266,0.9965236035756266,1.9838951514046908e-05,-8.032578340155023e-06,0.08331090600000018,-3.1814268e-06,-2.8096993e-05,-0.00011652346,-0.0034542335,0.002150125,0.00023912278,0,0,0,0,0,0,0,0,0,0,0,0,0,0,0,0,0,0,0,0,0,0,0,0,0,0,0,0
230,4.6000000000000005,0.0015328617,0.066931605,4.997562408447266,0.996523596118537,2.0025782463744265e-05,-8.505843117772637e-06,0.08331099510627354,3.2346222e-07,-2.3401579e-05,-0.000115836774,-0.003446814,0.0021526671,0.00023863293,0,0,0,0,0,0,0,0,0,0,0,0,0,0,0,0,0,0,0,0,0,0,0,0,0,0,0,0
231,4.62,0.00153295,0.0669308,4.997562408447266,0.9965235917623255,2.0324782406487903e-05,-8.983220303470126e-06,0.08331104709052,3.4824518e-06,-1.8929932e-05,-0.00011526698,-0.0034445627,0.0021483453,0.00023797275,0,0,0,0,0,0,0,0,0,0,0,0,0,0,0,0,0,0,0,0,0,0,0,0,0,0,0,0
232,4.64,0.0015331571,0.06693016,4.997562408447266,0.9965235867841956,2.0604433187412984e-05,-9.57648182298378e-06,0.083311106501536,6.2464815e-06,-1.4727934e-05,-0.00011484972,-0.003448327,0.0021439756,0.00023761908,0,0,0,0,0,0,0,0,0,0,0,0,0,0,0,0,0,0,0,0,0,0,0,0,0,0,0,0
233,4.66,0.0015334656,0.06692967,4.997562408447266,0.9965235811854276,2.086278162122918e-05,-1.0163990922861086e-05,0.08331117333712314,8.551471e-06,-1.07671485e-05,-0.000114349066,-0.0034438279,0.0021495495,0.00023757065,0,0,0,0,0,0,0,0,0,0,0,0,0,0,0,0,0,0,0,0,0,0,0,0,0,0,0,0
234,4.68,0.0015338581,0.06692935,4.997562408447266,0.9965235762059385,2.125305311790504e-05,-1.0593060723596954e-05,0.08331123274698365,1.0475463e-05,-7.088765e-06,-0.000114170274,-0.0034381386,0.0021551244,0.00023682138,0,0,0,0,0,0,0,0,0,0,0,0,0,0,0,0,0,0,0,0,0,0,0,0,0,0,0,0
235,4.7,0.0015343217,0.066929154,4.997562408447266,0.9965235737087843,2.1639843063080007e-05,-1.1041777104100026e-05,0.0833112624587429,1.210188e-05,-3.7552556e-06,-0.00011422272,-0.0034435173,0.0021481789,0.00023568295,0,0,0,0,0,0,0,0,0,0,0,0,0,0,0,0,0,0,0,0,0,0,0,0,0,0,0,0
236,4.72,0.001534843,0.06692909,4.997562408447266,0.9965235730744766,2.1908425099839882e-05,-1.1616901167080906e-05,0.08331126989757782,1.3343202e-05,-7.1459095e-07,-0.00011415122,-0.0034473788,0.0021483249,0.0002351394,0,0,0,0,0,0,0,0,0,0,0,0,0,0,0,0,0,0,0,0,0,0,0,0,0,0,0,0
237,4.74,0.0015354059,0.06692914,4.997562408447266,0.9965235724402259,2.224878673467061e-05,-1.2034474960046524e-05,0.08331127733466111,1.4194591e-05,2.0755433e-06,-0.000113946146,-0.0034357863,0.0021585126,0.00023514466,0,0,0,0,0,0,0,0,0,0,0,0,0,0,0,0,0,0,0,0,0,0,0,0,0,0,0,0
238,4.76,0.0015359975,0.0669293,4.997562408447266,0.9965235718021758,2.2795776638905118e-05,-1.2348102756784033e-05,0.08331128477289562,1.48052895e-05,4.493231e-06,-0.00011393185,-0.0034315134,0.0021557077,0.00023457747,0,0,0,0,0,0,0,0,0,0,0,0,0,0,0,0,0,0,0,0,0,0,0,0,0,0,0,0
239,4.78,0.0015366089,0.06692955,4.997562408447266,0.996523573027423,2.3218971806885415e-05,-1.2763713251714512e-05,0.08331126993765714,1.5167129e-05,6.4798196e-06,-0.000114086804,-0.0034450763,0.0021546304,0.00023396961,0,0,0,0,0,0,0,0,0,0,0,0,0,0,0,0,0,0,0,0,0,0,0,0,0,0,0,0
240,4.8,0.0015372289,0.06692987,4.997562408447266,0.996523573637466,2.3452963327977296e-05,-1.3099363306509347e-05,0.08331126252301736,1.524032e-05,8.195273e-06,-0.00011412502,-0.0034457599,0.0021623564,0.00023388445,0,0,0,0,0,0,0,0,0,0,0,0,0,0,0,0,0,0,0,0,0,0,0,0,0,0,0,0
241,4.82,0.0015378473,0.06693025,4.997562408447266,0.9965235754866718,2.382454364506355e-05,-1.3344914830257502e-05,0.08331124025942573,1.5114102e-05,9.676315e-06,-0.00011422749,-0.0034344122,0.0021604805,0.00023346404,0,0,0,0,0,0,0,0,0,0,0,0,0,0,0,0,0,0,0,0,0,0,0,0,0,0,0,0
242,4.84,0.0015384571,0.0669307,4.997562408447266,0.9965235785730053,2.4309029825945713e-05,-1.3668390848358993e-05,0.08331120314998137,1.4800281e-05,1.07862015e-05,-0.00011448501,-0.0034390409,0.0021573661,0.00023322437,0,0,0,0,0,0,0,0,0,0,0,0,0,0,0,0,0,0,0,0,0,0,0,0,0,0,0,0
243,4.86,0.0015390501,0.066931166,4.997562408447266,0.9965235810456384,2.4534177674574498e-05,-1.3952322490453156e-05,0.08331117346061019,1.425826e-05,1.1576409e-05,-0.00011469238,-0.0034525536,0.0021654018,0.00023352183,0,0,0,0,0,0,0,0,0,0,0,0,0,0,0,0,0,0,0,0,0,0,0,0,0,0,0,0
244,4.88,0.0015396177,0.06693166,4.997562408447266,0.996523584141654,2.4732381701718247e-05,-1.4104467044399151e-05,0.08331113634349926,1.3557688e-05,1.222105e-05,-0.00011475913,-0.00344163,0.0021685793,0.00023342752,0,0,0,0,0,0,0,0,0,0,0,0,0,0,0,0,0,0,0,0,0,0,0,0,0,0,0,0
245,4.9,0.0015401556,0.06693218,4.997562408447266,0.9965235872321988,2.513300110874333e-05,-1.4259454063141895e-05,0.08331109922975717,1.2767516e-05,1.26178e-05,-0.00011492844,-0.0034381077,0.0021646984,0.00023307117,0,0,0,0,0,0,0,0,0,0,0,0,0,0,0,0,0,0,0,0,0,0,0,0,0,0,0,0
246,4.92,0.0015406598,0.06693271,4.997562408447266,0.9965235903249984,2.5421686637916253e-05,-1.4448973993291013e-05,0.08331106211506308,1.1859279e-05,1.2708442e-05,-0.000115271774,-0.003449812,0.0021683814,0.00023322701,0,0,0,0,0,0,0,0,0,0,0,0,0,0,0,0,0,0,0,0,0,0,0,0,0,0,0,0
247,4.94,0.0015411252,0.06693324,4.997562408447266,0.9965235928032801,2.5549183179798253e-05,-1.4519181783226426e-05,0.08331103241993268,1.0854176e-05,1.2638541e-05,-0.00011552686,-0.003450088,0.002174721,0.00023328721,0,0,0,0,0,0,0,0,0,0,0,0,0,0,0,0,0,0,0,0,0,0,0,0,0,0,0,0
248,4.96,0.0015415499,0.06693376,4.997562408447266,0.9965235952794319,2.577607810286425e-05,-1.4553099152848629e-05,0.08331100272566738,9.830691e-06,1.2440537e-05,-0.00011586071,-0.0034436474,0.0021709383,0.00023291128,0,0,0,0,0,0,0,0,0,0,0,0,0,0,0,0,0,0,0,0,0,0,0,0,0,0,0,0
249,4.98,0.0015419332,0.066934265,4.997562408447266,0.9965235989943443,2.6036691873805856e-05,-1.468912916351823e-05,0.08331095818485855,8.7607295e-06,1.2032626e-05,-0.000116211166,-0.0034480812,0.0021685078,0.00023299507,0,0,0,0,0,0,0,0,0,0,0,0,0,0,0,0,0,0,0,0,0,0,0,0,0,0,0,0
250,5.0,0.0015422716,0.06693476,4.997562408447266,0.996523601473675,2.6136416540440468e-05,-1.4736113192746814e-05,0.08331092848882894,7.6128476e-06,1.1465474e-05,-0.00011641616,-0.0034561816,0.0021784513,0.00023346792,0,0,0,0,0,0,0,0,0,0,0,0,0,0,0,0,0,0,0,0,0,0,0,0,0,0,0,0
251,5.0200000000000005,0.0015425645,0.066935234,4.997562408447266,0.9965236039560309,2.6202975180716635e-05,-1.4655504533328246e-05,0.08331089878943726,6.4896135e-06,1.0855817e-05,-0.00011651633,-0.0034497401,0.0021790531,0.00023329766,0,0,0,0,0,0,0,0,0,0,0,0,0,0,0,0,0,0,0,0,0,0,0,0,0,0,0,0
252,5.04,0.0015428137,0.06693569,4.997562408447266,0.9965236070545058,2.6400159691998562e-05,-1.4632553382374788e-05,0.08331086166879415,5.424373e-06,1.0144751e-05,-0.00011673092,-0.0034476675,0.0021746834,0.0002329728,0,0,0,0,0,0,0,0,0,0,0,0,0,0,0,0,0,0,0,0,0,0,0,0,0,0,0,0
253,5.0600000000000005,0.0015430202,0.0669361,4.997562408447266,0.9965236101559077,2.6476824091750862e-05,-1.4634289709529847e-05,0.08331082454670458,4.3702444e-06,9.302122e-06,-0.00011704323,-0.0034605456,0.0021778282,0.00023302119,0,0,0,0,0,0,0,0,0,0,0,0,0,0,0,0,0,0,0,0,0,0,0,0,0,0,0,0
254,5.08,0.0015431854,0.06693647,4.997562408447266,0.996523613262963,2.639530430228572e-05,-1.456097544036525e-05,0.0833107874203223,3.3371323e-06,8.481046e-06,-0.000117169555,-0.0034579686,0.0021826036,0.0002334587,0,0,0,0,0,0,0,0,0,0,0,0,0,0,0,0,0,0,0,0,0,0,0,0,0,0,0,0
255,5.1000000000000005,0.0015433106,0.06693682,4.997562408447266,0.996523615745172,2.648894885261871e-05,-1.4441150298706867e-05,0.08331075772046083,2.387696e-06,7.676746e-06,-0.00011732452,-0.0034484311,0.0021794399,0.00023373782,0,0,0,0,0,0,0,0,0,0,0,0,0,0,0,0,0,0,0,0,0,0,0,0,0,0,0,0
256,5.12,0.0015433994,0.06693715,4.997562408447266,0.9965236169842477,2.660347280701984e-05,-1.4388781337310305e-05,0.0833107428717955,1.5143066e-06,6.7710994e-06,-0.000117605865,-0.0034576573,0.0021786562,0.00023374175,0,0,0,0,0,0,0,0,0,0,0,0,0,0,0,0,0,0,0,0,0,0,0,0,0,0,0,0
257,5.14,0.0015434541,0.06693742,4.997562408447266,0.9965236182304053,2.647772063238354e-05,-1.4314447723322567e-05,0.08331072801871543,6.852048e-07,5.8680025e-06,-0.0001177203,-0.003466166,0.0021813784,0.00023387537,0,0,0,0,0,0,0,0,0,0,0,0,0,0,0,0,0,0,0,0,0,0,0,0,0,0,0,0
258,5.16,0.0015434768,0.066937655,4.997562408447266,0.9965236194757043,2.6401409124858856e-05,-1.4206660444114258e-05,0.08331071316570306,-8.266452e-08,5.0798367e-06,-0.00011773939,-0.0034539073,0.0021825023,0.00023386754,0,0,0,0,0,0,0,0,0,0,0,0,0,0,0,0,0,0,0,0,0,0,0,0,0,0,0,0
259,5.18,0.0015434709,0.06693788,4.997562408447266,0.996523620715393,2.654138446150981e-05,-1.4071702952687153e-05,0.08331069831555728,-7.496308e-07,4.2690813e-06,-0.000117846685,-0.0034505145,0.0021810837,0.0002338924,0,0,0,0,0,0,0,0,0,0,0,0,0,0,0,0,0,0,0,0,0,0,0,0,0,0,0,0
260,5.2,0.0015434402,0.06693806,4.997562408447266,0.9965236219584281,2.6529969140590353e-05,-1.3990924643137694e-05,0.08331068346419146,-1.3226909e-06,3.386119e-06,-0.00011801834,-0.003465805,0.0021801372,0.00023405493,0,0,0,0,0,0,0,0,0,0,0,0,0,0,0,0,0,0,0,0,0,0,0,0,0,0,0,0
261,5.22,0.0015433877,0.0669382,4.997562408447266,0.9965236225862149,2.6322749882031402e-05,-1.3908831764342656e-05,0.08331067603437438,-1.8467517e-06,2.6108148e-06,-0.00011807083,-0.00346437,0.0021824024,0.00023442553,0,0,0,0,0,0,0,0,0,0,0,0,0,0,0,0,0,0,0,0,0,0,0,0,0,0,0,0
262,5.24,0.0015433154,0.06693832,4.997562408447266,0.9965236225886747,2.63046032404695e-05,-1.378473842233336e-05,0.08331067603130686,-2.2966794e-06,1.9488818e-06,-0.00011813758,-0.003452795,0.0021811302,0.00023452238,0,0,0,0,0,0,0,0,0,0,0,0,0,0,0,0,0,0,0,0,0,0,0,0,0,0,0,0
263,5.26,0.0015432272,0.06693842,4.997562408447266,0.9965236232082203,2.6388974499482952e-05,-1.3709835537370298e-05,0.08331066860626658,-2.6610142e-06,1.2510402e-06,-0.00011834264,-0.0034557444,0.002178815,0.00023436257,0,0,0,0,0,0,0,0,0,0,0,0,0,0,0,0,0,0,0,0,0,0,0,0,0,0,0,0
264,5.28,0.0015431255,0.06693849,4.997562408447266,0.9965236232116806,2.6311759581807466e-05,-1.362534349064611e-05,0.08331066860316177,-2.9699993e-06,5.4151695e-07,-0.000118449905,-0.0034648895,0.0021832807,0.00023443595,0,0,0,0,0,0,0,0,0,0,0,0,0,0,0,0,0,0,0,0,0,0,0,0,0,0,0,0
265,5.3,0.0015430129,0.06693851,4.997562408447266,0.9965236238388742,2.6160262941887576e-05,-1.3476926833910675e-05,0.08331066117281212,-3.1936615e-06,-5.610635e-08,-0.000118402255,-0.0034622478,0.0021833119,0.00023426299,0,0,0,0,0,0,0,0,0,0,0,0,0,0,0,0,0,0,0,0,0,0,0,0,0,0,0,0
266,5.32,0.0015428935,0.06693853,4.997562408447266,0.9965236257031405,2.6131649093027467e-05,-1.3389575129381372e-05,0.08331063889638174,-3.323803e-06,-5.668988e-07,-0.00011832359,-0.0034569323,0.0021786,0.0002340781,0,0,0,0,0,0,0,0,0,0,0,0,0,0,0,0,0,0,0,0,0,0,0,0,0,0,0,0
267,5.34,0.0015427696,0.06693853,4.997562408447266,0.9965236257041792,2.6117792795823643e-05,-1.3346538523603295e-05,0.08331063889520826,-3.4082968e-06,-1.0682711e-06,-0.00011829498,-0.0034595726,0.002178909,0.00023463102,0,0,0,0,0,0,0,0,0,0,0,0,0,0,0,0,0,0,0,0,0,0,0,0,0,0,0,0
268,5.36,0.0015426434,0.06693851,4.997562408447266,0.9965236244664101,2.6018099499636497e-05,-1.328602465482156e-05,0.08331065374169966,-3.4561863e-06,-1.5278714e-06,-0.00011833551,-0.0034649675,0.0021794625,0.00023509347,0,0,0,0,0,0,0,0,0,0,0,0,0,0,0,0,0,0,0,0,0,0,0,0,0,0,0,0
269,5.38,0.0015425157,0.06693848,4.997562408447266,0.9965236238503011,2.5868336861020205e-05,-1.3252079092572821e-05,0.08331066116335388,-3.4731274e-06,-1.8772538e-06,-0.00011828069,-0.0034625533,0.0021778145,0.0002351787,0,0,0,0,0,0,0,0,0,0,0,0,0,0,0,0,0,0,0,0,0,0,0,0,0,0,0,0
270,5.4,0.0015423876,0.06693844,4.997562408447266,0.9965236232304887,2.584448306883563e-05,-1.3235480254244841e-05,0.08331066858730528,-3.4778936e-06,-2.1486296e-06,-0.00011815436,-0.003456194,0.002177374,0.00023525851,0,0,0,0,0,0,0,0,0,0,0,0,0,0,0,0,0,0,0,0,0,0,0,0,0,0,0,0
271,5.42,0.0015422598,0.06693837,4.997562408447266,0.9965236226106733,2.585117703824769e-05,-1.3163956898296807e-05,0.08331067601050403,-3.4554855e-06,-2.4227863e-06,-0.00011811146,-0.0034583781,0.002181677,0.0002352716,0,0,0,0,0,0,0,0,0,0,0,0,0,0,0,0,0,0,0,0,0,0,0,0,0,0,0,0
272,5.44,0.0015421341,0.06693829,4.997562408447266,0.9965236219934381,2.5777382472811144e-05,-1.306576981167979e-05,0.08331068343190563,-3.3609767e-06,-2.6698085e-06,-0.00011823305,-0.0034637565,0.002180356,0.00023517465,0,0,0,0,0,0,0,0,0,0,0,0,0,0,0,0,0,0,0,0,0,0,0,0,0,0,0,0
273,5.46,0.0015420135,0.066938184,4.997562408447266,0.9965236213758109,2.56773999275731e-05,-1.3040377857227063e-05,0.08331069085453188,-3.2193238e-06,-2.8302304e-06,-0.00011833085,-0.0034584894,0.0021755137,0.0002349087,0,0,0,0,0,0,0,0,0,0,0,0,0,0,0,0,0,0,0,0,0,0,0,0,0,0,0,0
274,5.48,0.0015418985,0.06693808,4.997562408447266,0.9965236207540396,2.571282572430377e-05,-1.3047119511018727e-05,0.08331069827988864,-3.0800375e-06,-2.9665057e-06,-0.00011825455,-0.0034556345,0.0021766217,0.00023472139,0,0,0,0,0,0,0,0,0,0,0,0,0,0,0,0,0,0,0,0,0,0,0,0,0,0,0,0
275,5.5,0.0015417893,0.066937976,4.997562408447266,0.9965236207551662,2.568527174425363e-05,-1.302152372817342e-05,0.08331069827891414,-2.9321045e-06,-3.1203858e-06,-0.00011824027,-0.0034631165,0.0021784955,0.000234855,0,0,0,0,0,0,0,0,0,0,0,0,0,0,0,0,0,0,0,0,0,0,0,0,0,0,0,0
276,5.5200000000000005,0.0015416861,0.06693787,4.997562408447266,0.996523620138542,2.5551317058576516e-05,-1.2989375193603752e-05,0.08331070570089447,-2.7653196e-06,-3.2001801e-06,-0.0001181449,-0.0034622683,0.0021780874,0.00023498475,0,0,0,0,0,0,0,0,0,0,0,0,0,0,0,0,0,0,0,0,0,0,0,0,0,0,0,0
277,5.54,0.0015415902,0.06693777,4.997562408447266,0.9965236195189539,2.5522719102760503e-05,-1.2965373320642065e-05,0.08331071312462447,-2.5821812e-06,-3.2062153e-06,-0.00011796134,-0.0034574575,0.0021771244,0.00023502404,0,0,0,0,0,0,0,0,0,0,0,0,0,0,0,0,0,0,0,0,0,0,0,0,0,0,0,0
278,5.5600000000000005,0.0015415018,0.06693766,4.997562408447266,0.996523618899171,2.5505847316826136e-05,-1.2933142719301678e-05,0.0833107205483497,-2.3811817e-06,-3.202695e-06,-0.00011791607,-0.0034598864,0.002178949,0.00023485643,0,0,0,0,0,0,0,0,0,0,0,0,0,0,0,0,0,0,0,0,0,0,0,0,0,0,0,0
279,5.58,0.0015414221,0.06693756,4.997562408447266,0.9965236182815917,2.5425194051060012e-05,-1.2867236928351954e-05,0.08331072797040029,-2.1446624e-06,-3.1596715e-06,-0.00011790895,-0.003462297,0.0021797796,0.00023467034,0,0,0,0,0,0,0,0,0,0,0,0,0,0,0,0,0,0,0,0,0,0,0,0,0,0,0,0
280,5.6000000000000005,0.0015413527,0.066937454,4.997562408447266,0.9965236182834887,2.536480933962243e-05,-1.2847969885198492e-05,0.08331072796909218,-1.8709604e-06,-3.0477972e-06,-0.000117873205,-0.003458562,0.0021744312,0.00023452092,0,0,0,0,0,0,0,0,0,0,0,0,0,0,0,0,0,0,0,0,0,0,0,0,0,0,0,0
281,5.62,0.0015412943,0.06693735,4.997562408447266,0.996523618282534,2.5368502023967683e-05,-1.290604816123864e-05,0.08331072797040828,-1.6178728e-06,-2.9182718e-06,-0.00011769678,-0.0034573711,0.002173615,0.00023485099,0,0,0,0,0,0,0,0,0,0,0,0,0,0,0,0,0,0,0,0,0,0,0,0,0,0,0,0
282,5.64,0.0015412451,0.066937245,4.997562408447266,0.996523617662634,2.5334948363099208e-05,-1.2911588376584528e-05,0.08331073539471252,-1.3982938e-06,-2.7894919e-06,-0.00011759666,-0.0034622292,0.0021785533,0.00023498731,0,0,0,0,0,0,0,0,0,0,0,0,0,0,0,0,0,0,0,0,0,0,0,0,0,0,0,0
283,5.66,0.0015412048,0.06693714,4.997562408447266,0.9965236170448857,2.5240846108933394e-05,-1.2880333781890092e-05,0.08331074281732762,-1.1652704e-06,-2.600332e-06,-0.00011750365,-0.0034602552,0.0021761889,0.00023489686,0,0,0,0,0,0,0,0,0,0,0,0,0,0,0,0,0,0,0,0,0,0,0,0,0,0,0,0
284,5.68,0.0015411737,0.06693706,4.997562408447266,0.9965236170440473,2.525084030114224e-05,-1.2919160044494031e-05,0.08331074281831367,-9.366164e-07,-2.371815e-06,-0.0001173845,-0.0034551672,0.0021735306,0.00023493868,0,0,0,0,0,0,0,0,0,0,0,0,0,0,0,0,0,0,0,0,0,0,0,0,0,0,0,0
285,5.7,0.0015411512,0.066937,4.997562408447266,0.9965236164223934,2.5276926439133464e-05,-1.293586485548595e-05,0.08331075024373971,-7.356593e-07,-2.1718295e-06,-0.00011734874,-0.0034582308,0.0021766757,0.00023494517,0,0,0,0,0,0,0,0,0,0,0,0,0,0,0,0,0,0,0,0,0,0,0,0,0,0,0,0
286,5.72,0.001541137,0.06693695,4.997562408447266,0.9965236158029868,2.523860745226029e-05,-1.2916347338702477e-05,0.08331075766743132,-5.313919e-07,-1.9661036e-06,-0.00011735592,-0.003460121,0.0021770333,0.00023472506,0,0,0,0,0,0,0,0,0,0,0,0,0,0,0,0,0,0,0,0,0,0,0,0,0,0,0,0
287,5.74,0.0015411311,0.06693691,4.997562408447266,0.996523615802874,2.5228015208711514e-05,-1.294303032406622e-05,0.08331075766785058,-3.2472713e-07,-1.7302166e-06,-0.00011737024,-0.0034550007,0.0021722885,0.00023462145,0,0,0,0,0,0,0,0,0,0,0,0,0,0,0,0,0,0,0,0,0,0,0,0,0,0,0,0
288,5.76,0.0015411323,0.06693689,4.997562408447266,0.9965236157992592,2.5317715683329574e-05,-1.3025844250729872e-05,0.08331075767097061,-1.632904e-07,-1.5324619e-06,-0.00011735118,-0.0034532559,0.0021727278,0.0002347432,0,0,0,0,0,0,0,0,0,0,0,0,0,0,0,0,0,0,0,0,0,0,0,0,0,0,0,0
289,5.78,0.0015411392,0.06693687,4.997562408447266,0.9965236151771747,2.53506959521273e-05,-1.3058835146406467e-05,0.08331076509685574,-4.5358718e-08,-1.3993725e-06,-0.00011737981,-0.003460135,0.00217558,0.0002350301,0,0,0,0,0,0,0,0,0,0,0,0,0,0,0,0,0,0,0,0,0,0,0,0,0,0,0,0
290,5.8,0.0015411504,0.06693686,4.997562408447266,0.9965236145580124,2.528071570042896e-05,-1.3079853033836086e-05,0.08331077252094546,5.2850908e-08,-1.2450159e-06,-0.00011728444,-0.003459303,0.0021751719,0.00023516374,0,0,0,0,0,0,0,0,0,0,0,0,0,0,0,0,0,0,0,0,0,0,0,0,0,0,0,0
291,5.82,0.0015411652,0.06693684,4.997562408447266,0.9965236139366077,2.529869490425383e-05,-1.3094061337587726e-05,0.08331077994620041,1.3340474e-07,-1.065777e-06,-0.000117201016,-0.00345552,0.0021752531,0.00023498558,0,0,0,0,0,0,0,0,0,0,0,0,0,0,0,0,0,0,0,0,0,0,0,0,0,0,0,0
292,5.84,0.0015411827,0.06693683,4.997562408447266,0.996523613314667,2.533706418673447e-05,-1.3107714962628242e-05,0.08331078737174888,2.0566387e-07,-9.1486567e-07,-0.00011723678,-0.0034563488,0.0021754322,0.00023463041,0,0,0,0,0,0,0,0,0,0,0,0,0,0,0,0,0,0,0,0,0,0,0,0,0,0,0,0
293,5.86,0.0015412036,0.06693681,4.997562408447266,0.9965236139348835,2.5351242174143015e-05,-1.3115671121026323e-05,0.08331077994745378,2.701923e-07,-7.8641193e-07,-0.00011733692,-0.0034573583,0.0021764908,0.00023433176,0,0,0,0,0,0,0,0,0,0,0,0,0,0,0,0,0,0,0,0,0,0,0,0,0,0,0,0
294,5.88,0.0015412264,0.06693681,4.997562408447266,0.9965236145552505,2.536277648374837e-05,-1.3118249079779343e-05,0.0833107725230028,3.3455643e-07,-6.655286e-07,-0.00011731069,-0.0034568675,0.002174925,0.00023421523,0,0,0,0,0,0,0,0,0,0,0,0,0,0,0,0,0,0,0,0,0,0,0,0,0,0,0,0
295,5.9,0.0015412515,0.06693681,4.997562408447266,0.9965236145547572,2.536113547735613e-05,-1.3154077957552014e-05,0.08331077252375406,3.8427368e-07,-5.5412005e-07,-0.00011718671,-0.0034590673,0.002174761,0.00023461742,0,0,0,0,0,0,0,0,0,0,0,0,0,0,0,0,0,0,0,0,0,0,0,0,0,0,0,0
296,5.92,0.0015412783,0.06693682,4.997562408447266,0.9965236145551228,2.533540134746029e-05,-1.3175468397505715e-05,0.08331077252383033,4.0829417e-07,-4.293385e-07,-0.00011711283,-0.0034572405,0.0021755914,0.00023479552,0,0,0,0,0,0,0,0,0,0,0,0,0,0,0,0,0,0,0,0,0,0,0,0,0,0,0,0
297,5.94,0.0015413063,0.066936836,4.997562408447266,0.9965236139336575,2.536927368898499e-05,-1.3165309546838784e-05,0.08331077994879897,4.2575044e-07,-3.0721725e-07,-0.00011713191,-0.0034555423,0.0021770743,0.00023458996,0,0,0,0,0,0,0,0,0,0,0,0,0,0,0,0,0,0,0,0,0,0,0,0,0,0,0,0
298,5.96,0.0015413347,0.06693685,4.997562408447266,0.9965236139335002,2.5376650096537904e-05,-1.3162670397613256e-05,0.08331077994885262,4.552026e-07,-2.0788768e-07,-0.00011731548,-0.003459128,0.0021755735,0.00023448245,0,0,0,0,0,0,0,0,0,0,0,0,0,0,0,0,0,0,0,0,0,0,0,0,0,0,0,0
299,5.98,0.0015413645,0.066936865,4.997562408447266,0.9965236139335881,2.5354099470172413e-05,-1.3196878693458807e-05,0.08331077994925407,4.716502e-07,-9.6121816e-08,-0.000117313124,-0.00345652,0.0021739425,0.00023444445,0,0,0,0,0,0,0,0,0,0,0,0,0,0,0,0,0,0,0,0,0,0,0,0,0,0,0,0
300,6.0,0.0015413943,0.06693688,4.997562408447266,0.9965236139307961,2.5438892925880327e-05,-1.3231652073168586e-05,0.0833107799512856,4.5905364e-07,-5.6873497e-09,-0.000117146265,-0.0034516612,0.0021750338,0.00023459517,0,0,0,0,0,0,0,0,0,0,0,0,0,0,0,0,0,0,0,0,0,0,0,0,0,0,0,0
301,6.0200000000000005,0.0015414231,0.066936895,4.997562408447266,0.996523613929039,2.5513037283754546e-05,-1.3216293969367478e-05,0.08331077995207034,4.4253062e-07,6.8643566e-09,-0.00011721301,-0.0034575127,0.0021780164,0.00023473396,0,0,0,0,0,0,0,0,0,0,0,0,0,0,0,0,0,0,0,0,0,0,0,0,0,0,0,0
302,6.04,0.0015414519,0.06693691,4.997562408447266,0.996523613931326,2.5445550416517605e-05,-1.3184649849219342e-05,0.08331077995036525,4.4953373e-07,1.7560472e-08,-0.00011734891,-0.0034620282,0.0021768908,0.00023451903,0,0,0,0,0,0,0,0,0,0,0,0,0,0,0,0,0,0,0,0,0,0,0,0,0,0,0,0
303,6.0600000000000005,0.001541481,0.066936925,4.997562408447266,0.9965236145522547,2.5416540184186087e-05,-1.3221962954003114e-05,0.08331077252605863,4.552473e-07,8.3023515e-08,-0.000117375166,-0.0034549516,0.0021719832,0.0002342635,0,0,0,0,0,0,0,0,0,0,0,0,0,0,0,0,0,0,0,0,0,0,0,0,0,0,0,0
304,6.08,0.0015415095,0.06693694,4.997562408447266,0.9965236145473442,2.5554314663828976e-05,-1.330213686572251e-05,0.08331077252988602,4.111277e-07,1.0359298e-07,-0.000117348915,-0.0034490656,0.0021735139,0.00023446,0,0,0,0,0,0,0,0,0,0,0,0,0,0,0,0,0,0,0,0,0,0,0,0,0,0,0,0
305,6.1000000000000005,0.0015415358,0.066936955,4.997562408447266,0.9965236145451158,2.565071240910209e-05,-1.3277704624268604e-05,0.08331077253081381,3.473287e-07,7.898674e-09,-0.00011740614,-0.0034584063,0.0021795945,0.00023475998,0,0,0,0,0,0,0,0,0,0,0,0,0,0,0,0,0,0,0,0,0,0,0,0,0,0,0,0
306,6.12,0.0015415603,0.06693697,4.997562408447266,0.9965236145490554,2.5534771714894637e-05,-1.3223786330627434e-05,0.08331077252788203,3.2345616e-07,-7.767443e-08,-0.000117499156,-0.0034652513,0.0021775726,0.00023455707,0,0,0,0,0,0,0,0,0,0,0,0,0,0,0,0,0,0,0,0,0,0,0,0,0,0,0,0
307,6.140000000000001,0.0015415839,0.066936985,4.997562408447266,0.9965236151708037,2.5463183990336045e-05,-1.3282499797574356e-05,0.08331076510339784,2.9761134e-07,-6.599435e-08,-0.00011746103,-0.0034559255,0.0021712794,0.00023436455,0,0,0,0,0,0,0,0,0,0,0,0,0,0,0,0,0,0,0,0,0,0,0,0,0,0,0,0
308,6.16,0.0015416052,0.066937,4.997562408447266,0.9965236151671936,2.558485501893793e-05,-1.3304897381612463e-05,0.08331076510573016,2.2166614e-07,-7.982993e-08,-0.00011735613,-0.0034504135,0.0021786308,0.00023480589,0,0,0,0,0,0,0,0,0,0,0,0,0,0,0,0,0,0,0,0,0,0,0,0,0,0,0,0
309,6.18,0.0015416243,0.066937014,4.997562408447266,0.9965236145461962,2.563674552145083e-05,-1.3231227382288905e-05,0.08331077252958449,1.8251598e-07,-1.810892e-07,-0.000117527794,-0.0034606021,0.0021791356,0.00023475611,0,0,0,0,0,0,0,0,0,0,0,0,0,0,0,0,0,0,0,0,0,0,0,0,0,0,0,0
310,6.2,0.0015416426,0.06693703,4.997562408447266,0.9965236151698049,2.5532609753059766e-05,-1.3225263243494268e-05,0.0833107651032021,1.788681e-07,-2.4918376e-07,-0.00011764945,-0.003461417,0.002174978,0.00023420456,0,0,0,0,0,0,0,0,0,0,0,0,0,0,0,0,0,0,0,0,0,0,0,0,0,0,0,0
311,6.22,0.0015416602,0.066937044,4.997562408447266,0.9965236164113419,2.5507920729099888e-05,-1.3261886710898004e-05,0.08331075025426778,1.538055e-07,-2.6073639e-07,-0.00011752068,-0.00345695,0.0021741297,0.00023425178,0,0,0,0,0,0,0,0,0,0,0,0,0,0,0,0,0,0,0,0,0,0,0,0,0,0,0,0
312,6.24,0.001541676,0.06693706,4.997562408447266,0.9965236164096963,2.5545757814146427e-05,-1.3303367520957772e-05,0.08331075025574447,9.76268e-08,-2.8265873e-07,-0.0001173395,-0.0034556452,0.002174993,0.0002347221,0,0,0,0,0,0,0,0,0,0,0,0,0,0,0,0,0,0,0,0,0,0,0,0,0,0,0,0
313,6.26,0.0015416895,0.066937074,4.997562408447266,0.9965236157893544,2.5540764122013252e-05,-1.3287716394787485e-05,0.08331075768000719,2.8899416e-08,-3.2820202e-07,-0.00011732519,-0.0034603896,0.0021782033,0.0002349199,0,0,0,0,0,0,0,0,0,0,0,0,0,0,0,0,0,0,0,0,0,0,0,0,0,0,0,0
314,6.28,0.0015417008,0.06693709,4.997562408447266,0.9965236151697455,2.55032284963158e-05,-1.3281411785674653e-05,0.08331076510398071,-2.559114e-08,-3.436615e-07,-0.00011739193,-0.003456639,0.0021752997,0.0002346894,0,0,0,0,0,0,0,0,0,0,0,0,0,0,0,0,0,0,0,0,0,0,0,0,0,0,0,0
315,6.3,0.0015417094,0.066937104,4.997562408447266,0.9965236157887872,2.556007632324924e-05,-1.3290862341550211e-05,0.08331075768036851,-8.572216e-08,-3.6779198e-07,-0.00011749444,-0.0034543371,0.0021763418,0.0002343332,0,0,0,0,0,0,0,0,0,0,0,0,0,0,0,0,0,0,0,0,0,0,0,0,0,0,0,0
316,6.32,0.0015417156,0.06693712,4.997562408447266,0.9965236164099088,2.555710305960046e-05,-1.3269207073056579e-05,0.08331075025517158,-1.3830186e-07,-4.2730375e-07,-0.00011755163,-0.0034616394,0.0021774173,0.00023440909,0,0,0,0,0,0,0,0,0,0,0,0,0,0,0,0,0,0,0,0,0,0,0,0,0,0,0,0
317,6.34,0.0015417199,0.06693713,4.997562408447266,0.9965236170332138,2.5463381278305664e-05,-1.3264340018799163e-05,0.08331074282896785,-1.8201024e-07,-4.380385e-07,-0.00011751587,-0.0034602857,0.002176487,0.00023442342,0,0,0,0,0,0,0,0,0,0,0,0,0,0,0,0,0,0,0,0,0,0,0,0,0,0,0,0
318,6.36,0.0015417223,0.06693715,4.997562408447266,0.9965236170326655,2.5482682148778057e-05,-1.3266346078759796e-05,0.08331074282930342,-2.2866288e-07,-4.1029688e-07,-0.0001173967,-0.003454188,0.0021763393,0.00023448232,0,0,0,0,0,0,0,0,0,0,0,0,0,0,0,0,0,0,0,0,0,0,0,0,0,0,0,0
319,6.38,0.0015417231,0.06693716,4.997562408447266,0.9965236170323608,2.5511534722470763e-05,-1.3235248824996483e-05,0.08331074282906291,-2.6409174e-07,-4.1578625e-07,-0.00011743245,-0.0034588482,0.0021781644,0.0002346801,0,0,0,0,0,0,0,0,0,0,0,0,0,0,0,0,0,0,0,0,0,0,0,0,0,0,0,0
320,6.4,0.0015417234,0.06693718,4.997562408447266,0.9965236170336423,2.5466546732127426e-05,-1.3230348668356569e-05,0.08331074282827708,-2.7911466e-07,-4.0764354e-07,-0.000117434865,-0.0034587332,0.0021748217,0.00023486598,0,0,0,0,0,0,0,0,0,0,0,0,0,0,0,0,0,0,0,0,0,0,0,0,0,0,0,0
321,6.42,0.0015417222,0.06693719,4.997562408447266,0.9965236164110516,2.549984905330893e-05,-1.3295379211502725e-05,0.0833107502548743,-3.180125e-07,-3.891592e-07,-0.00011737765,-0.0034544934,0.0021722612,0.00023510307,0,0,0,0,0,0,0,0,0,0,0,0,0,0,0,0,0,0,0,0,0,0,0,0,0,0,0,0
322,6.44,0.001541719,0.06693721,4.997562408447266,0.9965236157886868,2.5551809100044392e-05,-1.3312146921992483e-05,0.08331075768070718,-3.9912413e-07,-4.1646268e-07,-0.00011745393,-0.0034560238,0.002179173,0.00023523658,0,0,0,0,0,0,0,0,0,0,0,0,0,0,0,0,0,0,0,0,0,0,0,0,0,0,0,0
323,6.46,0.0015417128,0.06693722,4.997562408447266,0.9965236151692151,2.5558280732824416e-05,-1.3218597584373418e-05,0.08331076510344412,-4.423594e-07,-4.6392717e-07,-0.0001177305,-0.0034577025,0.002179449,0.00023482913,0,0,0,0,0,0,0,0,0,0,0,0,0,0,0,0,0,0,0,0,0,0,0,0,0,0,0,0
324,6.48,0.0015417062,0.06693724,4.997562408447266,0.9965236157900171,2.555082423093876e-05,-1.3226022338562454e-05,0.08331075767881407,-4.4070708e-07,-5.0536954e-07,-0.000117887896,-0.0034582075,0.0021729441,0.00023433134,0,0,0,0,0,0,0,0,0,0,0,0,0,0,0,0,0,0,0,0,0,0,0,0,0,0,0,0
325,6.5,0.0015416992,0.06693724,4.997562408447266,0.9965236164093842,2.555943717579845e-05,-1.3299681215827817e-05,0.08331075025587163,-4.796963e-07,-5.4744095e-07,-0.00011789271,-0.0034555641,0.0021745565,0.00023435756,0,0,0,0,0,0,0,0,0,0,0,0,0,0,0,0,0,0,0,0,0,0,0,0,0,0,0,0
326,6.5200000000000005,0.00154169,0.06693724,4.997562408447266,0.9965236164083233,2.5631270217940955e-05,-1.3241894771991737e-05,0.08331075025569679,-5.327944e-07,-6.2187627e-07,-0.00011780449,-0.0034537364,0.0021808485,0.00023440986,0,0,0,0,0,0,0,0,0,0,0,0,0,0,0,0,0,0,0,0,0,0,0,0,0,0,0,0
327,6.54,0.0015416797,0.06693724,4.997562408447266,0.9965236170296722,2.5649558000175747e-05,-1.3167046928779894e-05,0.08331074282965303,-5.1717655e-07,-7.367758e-07,-0.000117833086,-0.0034598159,0.0021777502,0.0002341793,0,0,0,0,0,0,0,0,0,0,0,0,0,0,0,0,0,0,0,0,0,0,0,0,0,0,0,0
328,6.5600000000000005,0.0015416708,0.06693723,4.997562408447266,0.9965236170320254,2.5546617993483907e-05,-1.3194969461970136e-05,0.08331074282871404,-4.822616e-07,-8.176641e-07,-0.00011768286,-0.003464021,0.002174098,0.00023429585,0,0,0,0,0,0,0,0,0,0,0,0,0,0,0,0,0,0,0,0,0,0,0,0,0,0,0,0
329,6.58,0.0015416626,0.06693722,4.997562408447266,0.9965236170328364,2.5505549204583487e-05,-1.3214394628750743e-05,0.08331074282851843,-4.828566e-07,-8.241827e-07,-0.00011736104,-0.003454059,0.002176412,0.00023491684,0,0,0,0,0,0,0,0,0,0,0,0,0,0,0,0,0,0,0,0,0,0,0,0,0,0,0,0
330,6.6000000000000005,0.0015416543,0.066937216,4.997562408447266,0.9965236170297245,2.5623134294985128e-05,-1.3210887314043276e-05,0.08331074283021551,-4.801984e-07,-8.674678e-07,-0.00011744444,-0.0034521017,0.0021747977,0.00023526659,0,0,0,0,0,0,0,0,0,0,0,0,0,0,0,0,0,0,0,0,0,0,0,0,0,0,0,0
331,6.62,0.0015416462,0.0669372,4.997562408447266,0.996523616408336,2.5640842724271132e-05,-1.322395277657459e-05,0.08331075025544847,-4.786269e-07,-9.832095e-07,-0.00011768044,-0.0034621095,0.0021764596,0.00023509492,0,0,0,0,0,0,0,0,0,0,0,0,0,0,0,0,0,0,0,0,0,0,0,0,0,0,0,0
332,6.640000000000001,0.001541638,0.066937186,4.997562408447266,0.9965236157913878,2.5508068552181137e-05,-1.3211339772314114e-05,0.08331075767784894,-4.828087e-07,-1.0459592e-06,-0.0001177758,-0.0034634934,0.0021783665,0.00023481854,0,0,0,0,0,0,0,0,0,0,0,0,0,0,0,0,0,0,0,0,0,0,0,0,0,0,0,0
333,6.66,0.0015416299,0.06693717,4.997562408447266,0.9965236157927246,2.546905958346528e-05,-1.3192107373444908e-05,0.08331075767684264,-4.7538396e-07,-1.023723e-06,-0.00011774483,-0.003454869,0.0021747628,0.00023443605,0,0,0,0,0,0,0,0,0,0,0,0,0,0,0,0,0,0,0,0,0,0,0,0,0,0,0,0
334,6.68,0.001541622,0.066937156,4.997562408447266,0.9965236164104164,2.5558934658902677e-05,-1.3232361065328152e-05,0.08331075025439533,-4.7731305e-07,-1.0299752e-06,-0.00011772813,-0.0034537106,0.002175348,0.00023430896,0,0,0,0,0,0,0,0,0,0,0,0,0,0,0,0,0,0,0,0,0,0,0,0,0,0,0,0
335,6.7,0.0015416136,0.06693714,4.997562408447266,0.9965236170315548,2.5557579511654355e-05,-1.3206633272580244e-05,0.0833107428291338,-4.852467e-07,-1.0872187e-06,-0.000117804404,-0.0034624161,0.002178966,0.00023443729,0,0,0,0,0,0,0,0,0,0,0,0,0,0,0,0,0,0,0,0,0,0,0,0,0,0,0,0
336,6.72,0.0015416055,0.066937126,4.997562408447266,0.9965236170359055,2.5424533769286345e-05,-1.3154791149710444e-05,0.08331074282600325,-4.6530397e-07,-1.0807208e-06,-0.000117737654,-0.0034628387,0.0021794052,0.00023448704,0,0,0,0,0,0,0,0,0,0,0,0,0,0,0,0,0,0,0,0,0,0,0,0,0,0,0,0
337,6.74,0.0015415985,0.06693711,4.997562408447266,0.9965236170367845,2.5402847219111996e-05,-1.3134881776329178e-05,0.08331074282524574,-4.1582308e-07,-9.951933e-07,-0.00011763755,-0.003454279,0.0021736016,0.00023426306,0,0,0,0,0,0,0,0,0,0,0,0,0,0,0,0,0,0,0,0,0,0,0,0,0,0,0,0
338,6.76,0.0015415935,0.0669371,4.997562408447266,0.9965236170326196,2.5500033683935608e-05,-1.3238572311056728e-05,0.08331074282896157,-3.942434e-07,-9.5083266e-07,-0.00011756604,-0.0034542123,0.0021699166,0.00023465464,0,0,0,0,0,0,0,0,0,0,0,0,0,0,0,0,0,0,0,0,0,0,0,0,0,0,0,0
339,6.78,0.0015415881,0.06693708,4.997562408447266,0.9965236170322095,2.5503955402937143e-05,-1.3258735660284708e-05,0.08331074282945966,-4.395569e-07,-9.642192e-07,-0.000117489755,-0.003460357,0.00218167,0.00023542886,0,0,0,0,0,0,0,0,0,0,0,0,0,0,0,0,0,0,0,0,0,0,0,0,0,0,0,0
340,6.8,0.0015415815,0.06693707,4.997562408447266,0.9965236151745587,2.5427382990839877e-05,-1.3096751349987331e-05,0.08331076509882387,-4.2492263e-07,-9.364132e-07,-0.000117587486,-0.003460536,0.002183788,0.0002351577,0,0,0,0,0,0,0,0,0,0,0,0,0,0,0,0,0,0,0,0,0,0,0,0,0,0,0,0
341,6.82,0.0015415773,0.06693705,4.997562408447266,0.9965236157958467,2.5397163877288314e-05,-1.3112377407517841e-05,0.08331075767403137,-3.2716804e-07,-8.5128005e-07,-0.00011769953,-0.0034563786,0.0021674696,0.00023418046,0,0,0,0,0,0,0,0,0,0,0,0,0,0,0,0,0,0,0,0,0,0,0,0,0,0,0,0
342,6.84,0.0015415754,0.06693704,4.997562408447266,0.9965236157905633,2.5492416907214825e-05,-1.3293682192117435e-05,0.08331075767940425,-3.2767667e-07,-7.9808257e-07,-0.00011768523,-0.0034514703,0.0021711206,0.00023482376,0,0,0,0,0,0,0,0,0,0,0,0,0,0,0,0,0,0,0,0,0,0,0,0,0,0,0,0
343,6.86,0.0015415722,0.06693703,4.997562408447266,0.9965236151687251,2.5574001699166903e-05,-1.322302214278702e-05,0.083310765103778,-3.8443636e-07,-8.347849e-07,-0.00011762564,-0.0034572075,0.0021858246,0.00023552205,0,0,0,0,0,0,0,0,0,0,0,0,0,0,0,0,0,0,0,0,0,0,0,0,0,0,0,0
344,6.88,0.0015415688,0.06693702,4.997562408447266,0.9965236139316936,2.549423839938808e-05,-1.3073067235367071e-05,0.0833107799486669,-3.2595102e-07,-8.6342715e-07,-0.0001177568,-0.0034625863,0.002177364,0.00023468629,0,0,0,0,0,0,0,0,0,0,0,0,0,0,0,0,0,0,0,0,0,0,0,0,0,0,0,0
345,6.9,0.0015415687,0.06693701,4.997562408447266,0.9965236145522445,2.5436162988161377e-05,-1.3187754833521146e-05,0.0833107725256119,-2.525219e-07,-8.2222726e-07,-0.0001177282,-0.0034573684,0.0021678102,0.00023411652,0,0,0,0,0,0,0,0,0,0,0,0,0,0,0,0,0,0,0,0,0,0,0,0,0,0,0,0
346,6.92,0.0015415692,0.066937,4.997562408447266,0.9965236145486661,2.553153989258215e-05,-1.3255302599523768e-05,0.08331077252852019,-2.789056e-07,-8.00844e-07,-0.000117485,-0.0034517108,0.0021794492,0.00023459987,0,0,0,0,0,0,0,0,0,0,0,0,0,0,0,0,0,0,0,0,0,0,0,0,0,0,0,0
347,6.94,0.0015415691,0.06693699,4.997562408447266,0.9965236139288504,2.5589108049215505e-05,-1.309267026417788e-05,0.08331077995051388,-2.5802882e-07,-8.51655e-07,-0.00011753025,-0.0034576773,0.002184958,0.00023461298,0,0,0,0,0,0,0,0,0,0,0,0,0,0,0,0,0,0,0,0,0,0,0,0,0,0,0,0
348,6.96,0.0015415723,0.06693698,4.997562408447266,0.9965236145531919,2.547952139265239e-05,-1.304696338840994e-05,0.08331077252319873,-1.2800405e-07,-8.797862e-07,-0.000117697135,-0.0034668052,0.002171851,0.00023393576,0,0,0,0,0,0,0,0,0,0,0,0,0,0,0,0,0,0,0,0,0,0,0,0,0,0,0,0
349,6.98,0.0015415801,0.06693696,4.997562408447266,0.9965236157959645,2.53492301148825e-05,-1.3189859945052767e-05,0.08331075767499044,-5.978967e-08,-7.985365e-07,-0.00011752785,-0.0034596308,0.0021711325,0.00023426597,0,0,0,0,0,0,0,0,0,0,0,0,0,0,0,0,0,0,0,0,0,0,0,0,0,0,0,0
350,7.0,0.0015415885,0.06693696,4.997562408447266,0.9965236157937996,2.544230752313862e-05,-1.3168309130181644e-05,0.08331075767592291,-6.093677e-08,-6.977943e-07,-0.000117268,-0.00344781,0.0021813365,0.0002349629,0,0,0,0,0,0,0,0,0,0,0,0,0,0,0,0,0,0,0,0,0,0,0,0,0,0,0,0
351,7.0200000000000005,0.0015415982,0.06693696,4.997562408447266,0.9965236151711877,2.5570325251808245e-05,-1.30656415489621e-05,0.08331076510028251,1.5521836e-08,-7.042367e-07,-0.00011741819,-0.0034571497,0.0021772275,0.00023464319,0,0,0,0,0,0,0,0,0,0,0,0,0,0,0,0,0,0,0,0,0,0,0,0,0,0,0,0
352,7.04,0.0015416121,0.06693696,4.997562408447266,0.9965236157936369,2.5462667471532897e-05,-1.3142809205590304e-05,0.08331075767567434,1.10668054e-07,-7.218303e-07,-0.00011766617,-0.0034658713,0.0021712927,0.0002342398,0,0,0,0,0,0,0,0,0,0,0,0,0,0,0,0,0,0,0,0,0,0,0,0,0,0,0,0
353,7.0600000000000005,0.0015416282,0.06693696,4.997562408447266,0.9965236157953272,2.5375055643728618e-05,-1.3186374789135662e-05,0.08331075767530352,1.3064681e-07,-6.4578666e-07,-0.000117508804,-0.0034570836,0.0021775519,0.00023471395,0,0,0,0,0,0,0,0,0,0,0,0,0,0,0,0,0,0,0,0,0,0,0,0,0,0,0,0
354,7.08,0.001541645,0.06693696,4.997562408447266,0.9965236151728539,2.5465452098199725e-05,-1.3142470355960917e-05,0.08331076510038828,1.5802283e-07,-5.685211e-07,-0.000117382464,-0.003450887,0.00217703,0.00023499309,0,0,0,0,0,0,0,0,0,0,0,0,0,0,0,0,0,0,0,0,0,0,0,0,0,0,0,0
355,7.1000000000000005,0.0015416637,0.06693696,4.997562408447266,0.99652361454934,2.5558659940087988e-05,-1.3162237688085194e-05,0.08331077252689872,2.0950193e-07,-5.766586e-07,-0.00011747782,-0.0034564608,0.0021731004,0.00023482413,0,0,0,0,0,0,0,0,0,0,0,0,0,0,0,0,0,0,0,0,0,0,0,0,0,0,0,0
356,7.12,0.0015416835,0.06693696,4.997562408447266,0.9965236145499958,2.551237322909737e-05,-1.3201343588335258e-05,0.08331077252705513,2.2983892e-07,-6.1073257e-07,-0.00011752555,-0.003462165,0.0021770117,0.00023453585,0,0,0,0,0,0,0,0,0,0,0,0,0,0,0,0,0,0,0,0,0,0,0,0,0,0,0,0
357,7.140000000000001,0.0015417039,0.06693696,4.997562408447266,0.9965236145528732,2.5425120959254783e-05,-1.3165608466614116e-05,0.083310772524965,2.4505226e-07,-5.83656e-07,-0.00011743494,-0.0034606806,0.0021781356,0.00023443378,0,0,0,0,0,0,0,0,0,0,0,0,0,0,0,0,0,0,0,0,0,0,0,0,0,0,0,0
358,7.16,0.0015417252,0.06693697,4.997562408447266,0.9965236151732847,2.542974536369911e-05,-1.3177475514825355e-05,0.08331076510061265,2.7597218e-07,-5.1240426e-07,-0.00011734194,-0.0034540442,0.002172038,0.0002342844,0,0,0,0,0,0,0,0,0,0,0,0,0,0,0,0,0,0,0,0,0,0,0,0,0,0,0,0
359,7.18,0.0015417474,0.06693698,4.997562408447266,0.9965236151695116,2.5503329989769525e-05,-1.3296664926354712e-05,0.08331076510431408,2.5782504e-07,-4.880815e-07,-0.00011733718,-0.003456863,0.0021700643,0.0002346106,0,0,0,0,0,0,0,0,0,0,0,0,0,0,0,0,0,0,0,0,0,0,0,0,0,0,0,0
360,7.2,0.0015417669,0.066936985,4.997562408447266,0.9965236145499373,2.5452515108276054e-05,-1.33114524241368e-05,0.08331077252854419,1.6661168e-07,-4.8640044e-07,-0.000117272844,-0.0034616883,0.0021824369,0.00023520934,0,0,0,0,0,0,0,0,0,0,0,0,0,0,0,0,0,0,0,0,0,0,0,0,0,0,0,0
361,7.22,0.0015417837,0.066937,4.997562408447266,0.996523613931778,2.5438133626667948e-05,-1.3167810574315132e-05,0.08331077994988788,1.3708689e-07,-4.3244205e-07,-0.00011736821,-0.0034536174,0.0021793884,0.00023472062,0,0,0,0,0,0,0,0,0,0,0,0,0,0,0,0,0,0,0,0,0,0,0,0,0,0,0,0
362,7.24,0.0015418007,0.066937014,4.997562408447266,0.9965236151703322,2.550639479921336e-05,-1.3236994050771894e-05,0.08331076510306185,1.579287e-07,-4.089564e-07,-0.000117492214,-0.0034565013,0.0021678137,0.00023389417,0,0,0,0,0,0,0,0,0,0,0,0,0,0,0,0,0,0,0,0,0,0,0,0,0,0,0,0
363,7.26,0.0015418167,0.06693703,4.997562408447266,0.996523616409444,2.5518914342039035e-05,-1.3367448544951579e-05,0.08331075025673161,8.0363456e-08,-4.2598987e-07,-0.00011745886,-0.0034580817,0.0021744473,0.00023452556,0,0,0,0,0,0,0,0,0,0,0,0,0,0,0,0,0,0,0,0,0,0,0,0,0,0,0,0
364,7.28,0.0015418289,0.066937044,4.997562408447266,0.9965236157909165,2.5478984580740907e-05,-1.3294166286019054e-05,0.08331075767921117,-2.8375446e-08,-4.372984e-07,-0.00011741116,-0.0034598084,0.0021832979,0.0002351202,0,0,0,0,0,0,0,0,0,0,0,0,0,0,0,0,0,0,0,0,0,0,0,0,0,0,0,0
365,7.3,0.0015418379,0.06693706,4.997562408447266,0.9965236151714919,2.54560941899412e-05,-1.3249572063415012e-05,0.08331076510257546,-6.5503805e-08,-4.08257e-07,-0.00011760428,-0.0034568415,0.0021716899,0.00023472587,0,0,0,0,0,0,0,0,0,0,0,0,0,0,0,0,0,0,0,0,0,0,0,0,0,0,0,0
366,7.32,0.0015418452,0.066937074,4.997562408447266,0.9965236151678306,2.5505847817493325e-05,-1.340269805430391e-05,0.08331076510665777,-1.5085415e-07,-3.9498224e-07,-0.00011763529,-0.003455161,0.0021684936,0.00023473891,0,0,0,0,0,0,0,0,0,0,0,0,0,0,0,0,0,0,0,0,0,0,0,0,0,0,0,0
367,7.34,0.0015418467,0.06693709,4.997562408447266,0.9965236145457781,2.5551187145713866e-05,-1.3410532999581622e-05,0.08331077253220012,-3.2390926e-07,-4.321683e-07,-0.00011761142,-0.0034561385,0.0021834583,0.0002351961,0,0,0,0,0,0,0,0,0,0,0,0,0,0,0,0,0,0,0,0,0,0,0,0,0,0,0,0
368,7.36,0.0015418422,0.066937104,4.997562408447266,0.9965236139282803,2.552665596835282e-05,-1.324229633380821e-05,0.08331077995284245,-4.1306112e-07,-4.7430495e-07,-0.000117830736,-0.00345992,0.0021807353,0.00023460398,0,0,0,0,0,0,0,0,0,0,0,0,0,0,0,0,0,0,0,0,0,0,0,0,0,0,0,0
369,7.38,0.0015418364,0.06693712,4.997562408447266,0.9965236157902252,2.5509601008391423e-05,-1.3285542947402265e-05,0.08331075767948762,-4.406345e-07,-4.8224405e-07,-0.00011790472,-0.0034553541,0.0021699267,0.00023375124,0,0,0,0,0,0,0,0,0,0,0,0,0,0,0,0,0,0,0,0,0,0,0,0,0,0,0,0
370,7.4,0.0015418282,0.066937126,4.997562408447266,0.9965236170281491,2.560292617698599e-05,-1.3350800230714815e-05,0.08331074283296856,-5.3211255e-07,-5.281591e-07,-0.00011764958,-0.0034530226,0.0021775884,0.00023430269,0,0,0,0,0,0,0,0,0,0,0,0,0,0,0,0,0,0,0,0,0,0,0,0,0,0,0,0
371,7.42,0.001541816,0.066937126,4.997562408447266,0.996523617029753,2.561120339955433e-05,-1.3230313335095951e-05,0.08331074283046054,-5.9934507e-07,-6.283556e-07,-0.000117575684,-0.0034612217,0.0021842227,0.00023485158,0,0,0,0,0,0,0,0,0,0,0,0,0,0,0,0,0,0,0,0,0,0,0,0,0,0,0,0
372,7.44,0.0015418034,0.066937126,4.997562408447266,0.9965236164128115,2.549927932339967e-05,-1.3179853932966758e-05,0.0833107502523513,-5.783627e-07,-6.7185357e-07,-0.00011754948,-0.0034625574,0.0021732345,0.000234524,0,0,0,0,0,0,0,0,0,0,0,0,0,0,0,0,0,0,0,0,0,0,0,0,0,0,0,0
373,7.46,0.0015417913,0.066937126,4.997562408447266,0.9965236164121029,2.548269076796823e-05,-1.3256360594319032e-05,0.08331075025376597,-5.885724e-07,-6.5398154e-07,-0.00011741124,-0.0034547793,0.0021747006,0.00023463403,0,0,0,0,0,0,0,0,0,0,0,0,0,0,0,0,0,0,0,0,0,0,0,0,0,0,0,0
374,7.48,0.0015417782,0.066937126,4.997562408447266,0.9965236157905667,2.5545447091777138e-05,-1.3199170339749147e-05,0.08331075767814708,-6.140859e-07,-6.6628326e-07,-0.000117528,-0.0034555437,0.0021824914,0.00023487104,0,0,0,0,0,0,0,0,0,0,0,0,0,0,0,0,0,0,0,0,0,0,0,0,0,0,0,0
375,7.5,0.0015417655,0.066937126,4.997562408447266,0.9965236164135228,2.5519003726170814e-05,-1.3097167374485538e-05,0.0833107502508448,-5.5863575e-07,-6.9261915e-07,-0.00011775687,-0.0034608897,0.002176997,0.00023425539,0,0,0,0,0,0,0,0,0,0,0,0,0,0,0,0,0,0,0,0,0,0,0,0,0,0,0,0
376,7.5200000000000005,0.0015417556,0.066937126,4.997562408447266,0.9965236170344046,2.546702352879638e-05,-1.3178912850878687e-05,0.08331074282716602,-4.937368e-07,-6.7681e-07,-0.00011773781,-0.0034577434,0.00217059,0.00023395008,0,0,0,0,0,0,0,0,0,0,0,0,0,0,0,0,0,0,0,0,0,0,0,0,0,0,0,0
377,7.54,0.0015417469,0.066937126,4.997562408447266,0.9965236170320955,2.55350389123175e-05,-1.3210983725176273e-05,0.08331074282888883,-4.9478115e-07,-6.683645e-07,-0.00011755903,-0.003452476,0.0021790327,0.00023467845,0,0,0,0,0,0,0,0,0,0,0,0,0,0,0,0,0,0,0,0,0,0,0,0,0,0,0,0
378,7.5600000000000005,0.0015417384,0.066937126,4.997562408447266,0.9965236170317809,2.560604258905663e-05,-1.3104761991961848e-05,0.08331074282763463,-4.5407393e-07,-7.2182826e-07,-0.00011763535,-0.0034560126,0.0021798469,0.00023480562,0,0,0,0,0,0,0,0,0,0,0,0,0,0,0,0,0,0,0,0,0,0,0,0,0,0,0,0
379,7.58,0.0015417332,0.066937126,4.997562408447266,0.9965236170325276,2.555865447512024e-05,-1.3140060141380086e-05,0.08331074282769611,-3.6620764e-07,-7.883661e-07,-0.00011766398,-0.0034635754,0.0021706363,0.00023435363,0,0,0,0,0,0,0,0,0,0,0,0,0,0,0,0,0,0,0,0,0,0,0,0,0,0,0,0
380,7.6000000000000005,0.00154173,0.06693712,4.997562408447266,0.9965236170339176,2.5460057271014744e-05,-1.3223640965734348e-05,0.08331074282803339,-3.5133195e-07,-7.906452e-07,-0.00011755667,-0.0034595146,0.0021764545,0.00023480288,0,0,0,0,0,0,0,0,0,0,0,0,0,0,0,0,0,0,0,0,0,0,0,0,0,0,0,0
381,7.62,0.0015417269,0.06693712,4.997562408447266,0.9965236170334633,2.55127015599603e-05,-1.315999310857853e-05,0.08331074282744087,-3.4674088e-07,-7.6624286e-07,-0.00011740412,-0.0034518845,0.0021797149,0.00023503866,0,0,0,0,0,0,0,0,0,0,0,0,0,0,0,0,0,0,0,0,0,0,0,0,0,0,0,0
382,7.640000000000001,0.0015417254,0.06693712,4.997562408447266,0.996523616411623,2.5561649762244282e-05,-1.3147415719804382e-05,0.08331075025258132,-2.9082702e-07,-7.97861e-07,-0.0001174804,-0.003459187,0.002173111,0.00023488146,0,0,0,0,0,0,0,0,0,0,0,0,0,0,0,0,0,0,0,0,0,0,0,0,0,0,0,0
383,7.66,0.0015417254,0.06693711,4.997562408447266,0.9965236157912899,2.5498947324507876e-05,-1.323406840061123e-05,0.08331075767820617,-2.7265162e-07,-8.229983e-07,-0.0001174089,-0.003461126,0.0021739088,0.00023502152,0,0,0,0,0,0,0,0,0,0,0,0,0,0,0,0,0,0,0,0,0,0,0,0,0,0,0,0
384,7.68,0.001541725,0.066937104,4.997562408447266,0.9965236151712483,2.548223003144569e-05,-1.3219275086731655e-05,0.08331076510231152,-2.9484283e-07,-8.094559e-07,-0.00011731117,-0.003456054,0.002178439,0.00023507659,0,0,0,0,0,0,0,0,0,0,0,0,0,0,0,0,0,0,0,0,0,0,0,0,0,0,0,0
385,7.7,0.0015417243,0.0669371,4.997562408447266,0.996523614550714,2.5495270753367073e-05,-1.3184149486606322e-05,0.08331077252642306,-2.8830857e-07,-8.015772e-07,-0.00011739459,-0.003458498,0.0021768403,0.00023494284,0,0,0,0,0,0,0,0,0,0,0,0,0,0,0,0,0,0,0,0,0,0,0,0,0,0,0,0
386,7.72,0.0015417243,0.06693709,4.997562408447266,0.996523613931169,2.5454611075926392e-05,-1.3178969436893527e-05,0.08331077995037811,-2.6856964e-07,-7.8243016e-07,-0.00011748041,-0.0034607472,0.002176644,0.00023461411,0,0,0,0,0,0,0,0,0,0,0,0,0,0,0,0,0,0,0,0,0,0,0,0,0,0,0,0
387,7.74,0.0015417249,0.06693709,4.997562408447266,0.996523613932378,2.540489523464705e-05,-1.3187079426907528e-05,0.08331077994980625,-2.5154247e-07,-7.2157906e-07,-0.00011745419,-0.0034578282,0.0021752908,0.00023451842,0,0,0,0,0,0,0,0,0,0,0,0,0,0,0,0,0,0,0,0,0,0,0,0,0,0,0,0
388,7.76,0.0015417261,0.06693709,4.997562408447266,0.996523613930248,2.546627858189173e-05,-1.3219339679365846e-05,0.08331077995143134,-2.5003953e-07,-6.6035244e-07,-0.00011735883,-0.0034525776,0.0021742957,0.00023463764,0,0,0,0,0,0,0,0,0,0,0,0,0,0,0,0,0,0,0,0,0,0,0,0,0,0,0,0
389,7.78,0.0015417268,0.06693709,4.997562408447266,0.9965236139286185,2.5521494246087123e-05,-1.3229090783502255e-05,0.08331077995247674,-2.639486e-07,-6.6263755e-07,-0.00011745416,-0.00345882,0.002176528,0.00023480655,0,0,0,0,0,0,0,0,0,0,0,0,0,0,0,0,0,0,0,0,0,0,0,0,0,0,0,0
390,7.8,0.001541727,0.06693709,4.997562408447266,0.9965236139312845,2.543961176325899e-05,-1.3197980259191518e-05,0.08331077995056538,-2.729878e-07,-6.528226e-07,-0.000117544805,-0.0034616562,0.0021795097,0.00023451436,0,0,0,0,0,0,0,0,0,0,0,0,0,0,0,0,0,0,0,0,0,0,0,0,0,0,0,0
391,7.82,0.0015417273,0.06693709,4.997562408447266,0.996523614552894,2.5426484159352516e-05,-1.3161805499198739e-05,0.0833107725249029,-2.511415e-07,-5.8616416e-07,-0.00011752103,-0.0034542189,0.002174765,0.00023412793,0,0,0,0,0,0,0,0,0,0,0,0,0,0,0,0,0,0,0,0,0,0,0,0,0,0,0,0
392,7.84,0.0015417287,0.06693709,4.997562408447266,0.9965236151699083,2.5519983277708154e-05,-1.3240888658178042e-05,0.08331076510335195,-2.3985308e-07,-5.5967195e-07,-0.00011752577,-0.0034537117,0.0021705425,0.00023434544,0,0,0,0,0,0,0,0,0,0,0,0,0,0,0,0,0,0,0,0,0,0,0,0,0,0,0,0
393,7.86,0.0015417293,0.06693709,4.997562408447266,0.9965236151683469,2.5553872383004063e-05,-1.328385678671338e-05,0.08331076510480122,-2.8873802e-07,-5.983317e-07,-0.000117487616,-0.0034586827,0.0021789048,0.00023486679,0,0,0,0,0,0,0,0,0,0,0,0,0,0,0,0,0,0,0,0,0,0,0,0,0,0,0,0
394,7.88,0.001541728,0.06693709,4.997562408447266,0.9965236145511174,2.5488927819723873e-05,-1.3168648760385648e-05,0.08331077252599016,-3.0876606e-07,-6.2129715e-07,-0.00011753286,-0.0034617293,0.0021828334,0.00023480914,0,0,0,0,0,0,0,0,0,0,0,0,0,0,0,0,0,0,0,0,0,0,0,0,0,0,0,0
395,7.9,0.0015417277,0.06693709,4.997562408447266,0.9965236151735555,2.5436704324734557e-05,-1.3147048596561933e-05,0.08331076510005637,-2.5707607e-07,-5.7996675e-07,-0.00011767592,-0.0034575546,0.002171111,0.0002342484,0,0,0,0,0,0,0,0,0,0,0,0,0,0,0,0,0,0,0,0,0,0,0,0,0,0,0,0
396,7.92,0.0015417287,0.06693709,4.997562408447266,0.9965236157904186,2.5495776202993264e-05,-1.3297271060458423e-05,0.08331075767953322,-2.6484355e-07,-5.4562435e-07,-0.000117625874,-0.0034537232,0.0021696428,0.00023453913,0,0,0,0,0,0,0,0,0,0,0,0,0,0,0,0,0,0,0,0,0,0,0,0,0,0,0,0
397,7.94,0.0015417273,0.06693709,4.997562408447266,0.9965236151683771,2.5554712701904962e-05,-1.3280371333153714e-05,0.08331076510473794,-3.4465637e-07,-5.7498556e-07,-0.00011764493,-0.0034568682,0.0021836138,0.00023518495,0,0,0,0,0,0,0,0,0,0,0,0,0,0,0,0,0,0,0,0,0,0,0,0,0,0,0,0
398,7.96,0.0015417244,0.06693709,4.997562408447266,0.9965236145515718,2.5491578877464847e-05,-1.3133657235062842e-05,0.08331077252526795,-3.3940535e-07,-5.9954306e-07,-0.000117785574,-0.003461986,0.0021802553,0.00023471865,0,0,0,0,0,0,0,0,0,0,0,0,0,0,0,0,0,0,0,0,0,0,0,0,0,0,0,0
399,7.98,0.001541723,0.06693709,4.997562408447266,0.9965236151730189,2.5444192222724743e-05,-1.3169410866436523e-05,0.08331076510065469,-2.8443122e-07,-5.609507e-07,-0.00011776174,-0.0034566387,0.0021710277,0.0002341749,0,0,0,0,0,0,0,0,0,0,0,0,0,0,0,0,0,0,0,0,0,0,0,0,0,0,0,0
400,8.0,0.001541723,0.06693709,4.997562408447266,0.99652361516991,2.553011631134102e-05,-1.3222751949598552e-05,0.08331076510310972,-2.8333739e-07,-5.4107676e-07,-0.0001175591,-0.0034516824,0.0021768142,0.00023465828,0,0,0,0,0,0,0,0,0,0,0,0,0,0,0,0,0,0,0,0,0,0,0,0,0,0,0,0
401,8.02,0.001541723,0.06693709,4.997562408447266,0.9965236145486092,2.5597419654160555e-05,-1.3141436686521345e-05,0.08331077252702633,-2.655857e-07,-5.9570795e-07,-0.000117602,-0.0034581863,0.0021817528,0.00023494118,0,0,0,0,0,0,0,0,0,0,0,0,0,0,0,0,0,0,0,0,0,0,0,0,0,0,0,0
402,8.040000000000001,0.0015417251,0.06693709,4.997562408447266,0.9965236145518198,2.5502189904870936e-05,-1.309809424985734e-05,0.08331077252465192,-1.8187961e-07,-6.3544354e-07,-0.00011773076,-0.003463712,0.0021741397,0.00023432814,0,0,0,0,0,0,0,0,0,0,0,0,0,0,0,0,0,0,0,0,0,0,0,0,0,0,0,0
403,8.06,0.00154173,0.06693709,4.997562408447266,0.9965236157926278,2.5458387844770425e-05,-1.3217511968895849e-05,0.08331075767723409,-1.3487261e-07,-6.038386e-07,-0.00011762347,-0.003455315,0.002169086,0.00023411853,0,0,0,0,0,0,0,0,0,0,0,0,0,0,0,0,0,0,0,0,0,0,0,0,0,0,0,0
404,8.08,0.0015417349,0.06693709,4.997562408447266,0.9965236157883484,2.559076301185514e-05,-1.326528489384492e-05,0.08331075768027506,-1.718443e-07,-6.1512566e-07,-0.000117449476,-0.00345008,0.0021784746,0.0002347736,0,0,0,0,0,0,0,0,0,0,0,0,0,0,0,0,0,0,0,0,0,0,0,0,0,0,0,0
405,8.1,0.0015417387,0.06693709,4.997562408447266,0.9965236151682462,2.5612012681628864e-05,-1.3186867870053243e-05,0.08331076510356064,-1.7795162e-07,-7.1158144e-07,-0.000117523356,-0.003462778,0.002178555,0.00023499761,0,0,0,0,0,0,0,0,0,0,0,0,0,0,0,0,0,0,0,0,0,0,0,0,0,0,0,0
406,8.120000000000001,0.001541743,0.06693709,4.997562408447266,0.9965236145498602,2.5495470479513908e-05,-1.3240424294359292e-05,0.08331077252765101,-1.6585761e-07,-7.5114707e-07,-0.000117582975,-0.0034613437,0.0021702724,0.00023455881,0,0,0,0,0,0,0,0,0,0,0,0,0,0,0,0,0,0,0,0,0,0,0,0,0,0,0,0
407,8.14,0.0015417463,0.06693709,4.997562408447266,0.996523614547366,2.55367390177698e-05,-1.3331836845041356e-05,0.08331077253026632,-2.3159193e-07,-7.5334407e-07,-0.000117463765,-0.003451366,0.0021744117,0.00023459553,0,0,0,0,0,0,0,0,0,0,0,0,0,0,0,0,0,0,0,0,0,0,0,0,0,0,0,0
408,8.16,0.0015417463,0.06693709,4.997562408447266,0.9965236145448654,2.5647455779597325e-05,-1.3300015977492407e-05,0.08331077253125302,-3.162503e-07,-8.3404285e-07,-0.00011753526,-0.003454772,0.0021794809,0.0002347213,0,0,0,0,0,0,0,0,0,0,0,0,0,0,0,0,0,0,0,0,0,0,0,0,0,0,0,0
409,8.18,0.0015417436,0.06693708,4.997562408447266,0.9965236145468206,2.5615518573737623e-05,-1.3227797954904664e-05,0.08331077252918878,-3.4976205e-07,-9.502664e-07,-0.000117680705,-0.003463215,0.002178469,0.00023443569,0,0,0,0,0,0,0,0,0,0,0,0,0,0,0,0,0,0,0,0,0,0,0,0,0,0,0,0
410,8.2,0.0015417404,0.06693707,4.997562408447266,0.9965236151713024,2.546662558588959e-05,-1.3243427357964646e-05,0.08331076510260108,-3.6238134e-07,-9.870872e-07,-0.00011758293,-0.0034645027,0.0021748983,0.00023419062,0,0,0,0,0,0,0,0,0,0,0,0,0,0,0,0,0,0,0,0,0,0,0,0,0,0,0,0
411,8.22,0.0015417362,0.06693705,4.997562408447266,0.9965236157931814,2.542736555579392e-05,-1.3235909225470522e-05,0.08331075767716545,-3.9772078e-07,-9.330773e-07,-0.00011742319,-0.003453529,0.0021782226,0.00023432022,0,0,0,0,0,0,0,0,0,0,0,0,0,0,0,0,0,0,0,0,0,0,0,0,0,0,0,0
412,8.24,0.0015417311,0.06693704,4.997562408447266,0.9965236157903287,2.555454237900457e-05,-1.3198729394729985e-05,0.08331075767827452,-4.0371566e-07,-9.2025977e-07,-0.0001174923,-0.0034530228,0.002176102,0.00023454666,0,0,0,0,0,0,0,0,0,0,0,0,0,0,0,0,0,0,0,0,0,0,0,0,0,0,0,0
413,8.26,0.0015417262,0.06693702,4.997562408447266,0.9965236157908285,2.5524459482492776e-05,-1.32192366934168e-05,0.0833107576782682,-3.9781685e-07,-9.656426e-07,-0.000117592426,-0.0034645959,0.0021757416,0.00023480463,0,0,0,0,0,0,0,0,0,0,0,0,0,0,0,0,0,0,0,0,0,0,0,0,0,0,0,0
414,8.28,0.0015417209,0.06693701,4.997562408447266,0.9965236151740592,2.538028774573917e-05,-1.3213914106327113e-05,0.08331076510065817,-4.1053528e-07,-9.280781e-07,-0.00011749943,-0.003462133,0.0021781374,0.00023485564,0,0,0,0,0,0,0,0,0,0,0,0,0,0,0,0,0,0,0,0,0,0,0,0,0,0,0,0
415,8.3,0.0015417153,0.06693699,4.997562408447266,0.9965236145532629,2.5394536334367036e-05,-1.3194109782767711e-05,0.08331077252512326,-4.1263388e-07,-8.2385606e-07,-0.00011744219,-0.0034524808,0.0021750883,0.00023458693,0,0,0,0,0,0,0,0,0,0,0,0,0,0,0,0,0,0,0,0,0,0,0,0,0,0,0,0
416,8.32,0.0015417098,0.066936985,4.997562408447266,0.9965236145504628,2.548360960976279e-05,-1.322158361526521e-05,0.08331077252706205,-4.1521878e-07,-7.774492e-07,-0.000117549476,-0.0034560494,0.0021756578,0.00023447424,0,0,0,0,0,0,0,0,0,0,0,0,0,0,0,0,0,0,0,0,0,0,0,0,0,0,0,0
417,8.34,0.0015417042,0.066936985,4.997562408447266,0.9965236151730327,2.543730711265017e-05,-1.318076507423949e-05,0.08331076510079781,-4.1766225e-07,-7.549325e-07,-0.00011756144,-0.0034621458,0.0021798145,0.00023433536,0,0,0,0,0,0,0,0,0,0,0,0,0,0,0,0,0,0,0,0,0,0,0,0,0,0,0,0
418,8.36,0.0015416989,0.066936985,4.997562408447266,0.9965236157957575,2.537922554106318e-05,-1.3150315326621503e-05,0.08331075767458505,-3.857972e-07,-6.719561e-07,-0.00011755428,-0.0034566524,0.0021754275,0.00023417287,0,0,0,0,0,0,0,0,0,0,0,0,0,0,0,0,0,0,0,0,0,0,0,0,0,0,0,0
419,8.38,0.0015416953,0.066936985,4.997562408447266,0.9965236164136525,2.546237284600303e-05,-1.3189766118209586e-05,0.08331075025201153,-3.586877e-07,-5.9752693e-07,-0.00011742316,-0.003452004,0.002173764,0.00023428026,0,0,0,0,0,0,0,0,0,0,0,0,0,0,0,0,0,0,0,0,0,0,0,0,0,0,0,0
420,8.4,0.0015416922,0.066936985,4.997562408447266,0.9965236164115512,2.5527255050540456e-05,-1.321363850253944e-05,0.08331075025350884,-3.543846e-07,-5.98785e-07,-0.00011745179,-0.0034580994,0.002175948,0.00023459719,0,0,0,0,0,0,0,0,0,0,0,0,0,0,0,0,0,0,0,0,0,0,0,0,0,0,0,0
421,8.42,0.0015416889,0.066936985,4.997562408447266,0.9965236164126483,2.5486269071435952e-05,-1.3213879777466128e-05,0.083310750252896,-3.580588e-07,-6.058221e-07,-0.00011741602,-0.0034597127,0.0021764692,0.0002347859,0,0,0,0,0,0,0,0,0,0,0,0,0,0,0,0,0,0,0,0,0,0,0,0,0,0,0,0
422,8.44,0.0015416854,0.066936985,4.997562408447266,0.9965236157923371,2.5467099511700033e-05,-1.3221303190826828e-05,0.08331075767744786,-3.6520896e-07,-5.8323764e-07,-0.00011743747,-0.0034569558,0.002175441,0.00023484738,0,0,0,0,0,0,0,0,0,0,0,0,0,0,0,0,0,0,0,0,0,0,0,0,0,0,0,0
423,8.46,0.0015416816,0.066936985,4.997562408447266,0.9965236151708021,2.5494893508614072e-05,-1.3226319064292309e-05,0.08331076510265585,-3.7929425e-07,-5.666296e-07,-0.000117518495,-0.0034563853,0.0021760769,0.00023466135,0,0,0,0,0,0,0,0,0,0,0,0,0,0,0,0,0,0,0,0,0,0,0,0,0,0,0,0
424,8.48,0.0015416772,0.066936985,4.997562408447266,0.9965236151711178,2.54908636768645e-05,-1.3212569853896575e-05,0.08331076510229582,-3.903324e-07,-5.649328e-07,-0.00011754475,-0.003459417,0.0021775921,0.00023439284,0,0,0,0,0,0,0,0,0,0,0,0,0,0,0,0,0,0,0,0,0,0,0,0,0,0,0,0
425,8.5,0.0015416725,0.066936985,4.997562408447266,0.9965236157929354,2.545825981373907e-05,-1.3197334467724995e-05,0.08331075767679363,-3.8778933e-07,-5.4133983e-07,-0.00011753522,-0.0034574594,0.0021760263,0.00023436402,0,0,0,0,0,0,0,0,0,0,0,0,0,0,0,0,0,0,0,0,0,0,0,0,0,0,0,0
426,8.52,0.0015416681,0.06693699,4.997562408447266,0.9965236157915177,2.5500449253398144e-05,-1.3216291848133312e-05,0.08331075767784188,-3.8646743e-07,-5.184217e-07,-0.00011743037,-0.0034544743,0.0021752429,0.0002346534,0,0,0,0,0,0,0,0,0,0,0,0,0,0,0,0,0,0,0,0,0,0,0,0,0,0,0,0
427,8.540000000000001,0.0015416634,0.066937,4.997562408447266,0.9965236151704423,2.5516975257381076e-05,-1.3210868777752549e-05,0.0833107651026525,-3.9068595e-07,-5.315956e-07,-0.00011748514,-0.0034598853,0.0021766762,0.00023490746,0,0,0,0,0,0,0,0,0,0,0,0,0,0,0,0,0,0,0,0,0,0,0,0,0,0,0,0
428,8.56,0.0015416588,0.06693701,4.997562408447266,0.9965236145511038,2.546129369287416e-05,-1.3218774574373318e-05,0.08331077252666436,-3.9524048e-07,-5.2193826e-07,-0.00011746851,-0.0034590536,0.0021763004,0.0002348838,0,0,0,0,0,0,0,0,0,0,0,0,0,0,0,0,0,0,0,0,0,0,0,0,0,0,0,0
429,8.58,0.0015416539,0.066937014,4.997562408447266,0.9965236139299858,2.5481703394211965e-05,-1.3209283059429352e-05,0.08331077995144524,-4.020153e-07,-4.9204715e-07,-0.00011739464,-0.0034548305,0.0021759737,0.00023468865,0,0,0,0,0,0,0,0,0,0,0,0,0,0,0,0,0,0,0,0,0,0,0,0,0,0,0,0
430,8.6,0.0015416488,0.06693702,4.997562408447266,0.9965236139290419,2.5509827845778578e-05,-1.3221811946286848e-05,0.0833107799521421,-4.0576037e-07,-4.9158706e-07,-0.00011748044,-0.0034580731,0.0021752068,0.0002347018,0,0,0,0,0,0,0,0,0,0,0,0,0,0,0,0,0,0,0,0,0,0,0,0,0,0,0,0
431,8.620000000000001,0.0015416433,0.06693703,4.997562408447266,0.9965236139296009,2.5480614317598808e-05,-1.32367358789876e-05,0.0833107799520259,-4.238879e-07,-4.90329e-07,-0.00011757104,-0.0034589688,0.002177113,0.00023445423,0,0,0,0,0,0,0,0,0,0,0,0,0,0,0,0,0,0,0,0,0,0,0,0,0,0,0,0
432,8.64,0.001541637,0.066937044,4.997562408447266,0.9965236145507232,2.548690438675466e-05,-1.3198440370781491e-05,0.08331077252660818,-4.345692e-07,-4.7244197e-07,-0.00011754246,-0.003455951,0.0021779926,0.00023417131,0,0,0,0,0,0,0,0,0,0,0,0,0,0,0,0,0,0,0,0,0,0,0,0,0,0,0,0
433,8.66,0.0015416307,0.06693706,4.997562408447266,0.9965236151706817,2.551681264615845e-05,-1.3195277583629117e-05,0.08331076510231032,-4.2033065e-07,-4.7072587e-07,-0.00011757109,-0.0034567004,0.0021747963,0.00023430877,0,0,0,0,0,0,0,0,0,0,0,0,0,0,0,0,0,0,0,0,0,0,0,0,0,0,0,0
434,8.68,0.0015416251,0.066937074,4.997562408447266,0.9965236151705091,2.5510142655940708e-05,-1.3218593480512286e-05,0.08331076510271773,-4.1862546e-07,-4.829936e-07,-0.0001174662,-0.0034590953,0.0021761486,0.00023465854,0,0,0,0,0,0,0,0,0,0,0,0,0,0,0,0,0,0,0,0,0,0,0,0,0,0,0,0
435,8.700000000000001,0.0015416193,0.06693709,4.997562408447266,0.996523615171399,2.548243271668479e-05,-1.3208926746039135e-05,0.08331076510208946,-4.2438216e-07,-4.775788e-07,-0.00011740898,-0.003457448,0.002177403,0.00023480786,0,0,0,0,0,0,0,0,0,0,0,0,0,0,0,0,0,0,0,0,0,0,0,0,0,0,0,0
436,8.72,0.0015416137,0.066937104,4.997562408447266,0.9965236151716241,2.5503016814811238e-05,-1.3157243730606404e-05,0.08331076510127398,-4.0928444e-07,-4.6722226e-07,-0.00011744715,-0.0034562245,0.0021794399,0.00023456819,0,0,0,0,0,0,0,0,0,0,0,0,0,0,0,0,0,0,0,0,0,0,0,0,0,0,0,0
437,8.74,0.0015416093,0.06693712,4.997562408447266,0.9965236151722394,2.550005607472539e-05,-1.3121544931068582e-05,0.08331076510045164,-3.5065557e-07,-4.6613155e-07,-0.000117563985,-0.0034596303,0.002176081,0.0002344738,0,0,0,0,0,0,0,0,0,0,0,0,0,0,0,0,0,0,0,0,0,0,0,0,0,0,0,0
438,8.76,0.0015416078,0.06693713,4.997562408447266,0.9965236151725334,2.5468892807855482e-05,-1.3157666111704614e-05,0.08331076510077051,-2.9392203e-07,-4.4436553e-07,-0.0001175473,-0.0034567125,0.002173537,0.0002344541,0,0,0,0,0,0,0,0,0,0,0,0,0,0,0,0,0,0,0,0,0,0,0,0,0,0,0,0
439,8.78,0.0015416078,0.06693715,4.997562408447266,0.9965236151698343,2.5546732877218533e-05,-1.3198129918015639e-05,0.0833107651028233,-2.7130147e-07,-4.3975245e-07,-0.000117347015,-0.003452457,0.0021751984,0.00023468719,0,0,0,0,0,0,0,0,0,0,0,0,0,0,0,0,0,0,0,0,0,0,0,0,0,0,0,0
